"","Acc_x","Acc_y","Acc_z","Mag_x","Mag_y","Mag_z","Date","Hours","Minutes","Seconds","Pitch.angle","ODBA","VeDBA","Event.no.","DateTime","Behaviours"
"1",0.659912,-0.0478516,0.803955,-0.241211,0.411865,0.797119,"27/2/2019",15,13,46,-39.3305703149115,0.120361,0.0734863,318650,2019-02-27 15:13:46,"Eating"
"2",0.623779,-0.0239258,0.791992,-0.243408,0.415283,0.794678,"27/2/2019",15,13,46,-38.2115387607834,0.125977,0.0825195,318651,2019-02-27 15:13:46,"Eating"
"3",0.599854,-0.0358887,0.743896,-0.241699,0.414795,0.793701,"27/2/2019",15,13,46,-38.849057058443,0.101807,0.0693359,318652,2019-02-27 15:13:46,"Eating"
"4",0.575928,-0.0358887,0.731934,-0.23999,0.414307,0.792725,"27/2/2019",15,13,46,-38.1642885245639,0.138428,0.0869141,318653,2019-02-27 15:13:46,"Eating"
"5",0.647949,-0.0358887,0.731934,-0.238037,0.413818,0.791748,"27/2/2019",15,13,46,-41.4829144584522,0.0881348,0.0637207,318654,2019-02-27 15:13:46,"Eating"
"6",0.647949,-0.119873,0.719971,-0.234375,0.412598,0.789795,"27/2/2019",15,13,46,-41.5969011632509,0.0600586,0.0371094,318655,2019-02-27 15:13:46,"Eating"
"7",0.599854,-0.119873,0.755859,-0.235352,0.412842,0.791016,"27/2/2019",15,13,46,-38.0897019486347,0.0664063,0.0449219,318656,2019-02-27 15:13:46,"Eating"
"8",0.611816,-0.0959473,0.779785,-0.236572,0.413086,0.79248,"27/2/2019",15,13,46,-37.908715939904,0.0603027,0.0405273,318657,2019-02-27 15:13:46,"Eating"
"9",0.623779,-0.0478516,0.755859,-0.237793,0.41333,0.793945,"27/2/2019",15,13,46,-39.4751979238274,0.0727539,0.0539551,318658,2019-02-27 15:13:46,"Eating"
"10",0.647949,-0.0598145,0.719971,-0.239014,0.413574,0.79541,"27/2/2019",15,13,46,-41.8881542563543,0.0773926,0.0507813,318659,2019-02-27 15:13:46,"Eating"
"11",0.683838,-0.0839844,0.731934,-0.240234,0.413818,0.796875,"27/2/2019",15,13,46,-42.8674371460991,0.0766602,0.0488281,318660,2019-02-27 15:13:46,"Eating"
"12",0.683838,-0.10791,0.719971,-0.241455,0.414063,0.79834,"27/2/2019",15,13,46,-43.2078767127959,0.081543,0.0527344,318661,2019-02-27 15:13:46,"Eating"
"13",0.695801,-0.0839844,0.767822,-0.240479,0.41333,0.797852,"27/2/2019",15,13,46,-42.0134180797675,0.0876465,0.0593262,318662,2019-02-27 15:13:46,"Eating"
"14",0.671875,-0.0839844,0.803955,-0.239502,0.412598,0.797363,"27/2/2019",15,13,46,-39.7329940412291,0.0998535,0.0656738,318663,2019-02-27 15:13:46,"Eating"
"15",0.671875,-0.0959473,0.827881,-0.238525,0.411621,0.796875,"27/2/2019",15,13,46,-38.874505560197,0.112061,0.0871582,318664,2019-02-27 15:13:46,"Eating"
"16",0.635986,-0.131836,0.815918,-0.236328,0.409912,0.795898,"27/2/2019",15,13,46,-37.5780182472971,0.115234,0.0805664,318665,2019-02-27 15:13:46,"Eating"
"17",0.587891,-0.119873,0.743896,-0.237793,0.410645,0.797119,"27/2/2019",15,13,46,-37.9621219251972,0.0820313,0.0610352,318666,2019-02-27 15:13:46,"Eating"
"18",0.599854,-0.0598145,0.707764,-0.239502,0.411621,0.79834,"27/2/2019",15,13,46,-40.1818740397696,0.111572,0.0649414,318667,2019-02-27 15:13:46,"Eating"
"19",0.635986,-0.0959473,0.671875,-0.240967,0.412354,0.799561,"27/2/2019",15,13,46,-43.139487027745,0.0812988,0.0710449,318668,2019-02-27 15:13:46,"Eating"
"20",0.647949,-0.0839844,0.599854,-0.244385,0.414307,0.802002,"27/2/2019",15,13,46,-46.9299618132603,0.155762,0.142822,318669,2019-02-27 15:13:46,"Eating"
"21",0.671875,-0.0839844,0.623779,-0.243896,0.413818,0.804199,"27/2/2019",15,13,46,-46.8691972922806,0.155518,0.12207,318670,2019-02-27 15:13:46,"Eating"
"22",0.695801,-0.131836,0.707764,-0.243408,0.413086,0.806396,"27/2/2019",15,13,46,-44.0232593499219,0.123779,0.0727539,318671,2019-02-27 15:13:46,"Eating"
"23",0.671875,-0.119873,0.731934,-0.24292,0.412354,0.808594,"27/2/2019",15,13,46,-42.1726835372725,0.0610352,0.0380859,318672,2019-02-27 15:13:46,"Eating"
"24",0.671875,-0.0959473,0.779785,-0.241699,0.410889,0.813232,"27/2/2019",15,13,46,-40.5359550736104,0.065918,0.0473633,318673,2019-02-27 15:13:46,"Eating"
"25",0.671875,-0.0839844,0.791992,-0.240967,0.411621,0.810303,"27/2/2019",15,13,46,-40.1511703029761,0.088623,0.059082,318674,2019-02-27 15:13:46,"Eating"
"26",0.683838,-0.119873,0.791992,-0.23999,0.412598,0.807129,"27/2/2019",15,13,46,-40.4879531783563,0.112305,0.0681152,318675,2019-02-27 15:13:46,"Eating"
"27",0.683838,-0.131836,0.791992,-0.239014,0.41333,0.804199,"27/2/2019",15,13,46,-40.4217289746393,0.123535,0.0727539,318676,2019-02-27 15:13:46,"Eating"
"28",0.695801,-0.155762,0.791992,-0.237061,0.415283,0.797852,"27/2/2019",15,13,46,-40.7623950527096,0.157959,0.092041,318677,2019-02-27 15:13:46,"Eating"
"29",0.671875,-0.167969,0.767822,-0.237061,0.414551,0.796631,"27/2/2019",15,13,46,-40.5246428046418,0.121338,0.0810547,318678,2019-02-27 15:13:46,"Eating"
"30",0.635986,-0.179932,0.731934,-0.236816,0.413818,0.79541,"27/2/2019",15,13,46,-40.1573173140973,0.110596,0.0876465,318679,2019-02-27 15:13:46,"Eating"
"31",0.647949,-0.131836,0.695801,-0.236816,0.413086,0.794189,"27/2/2019",15,13,46,-42.4569171197081,0.0864258,0.0583496,318680,2019-02-27 15:13:46,"Eating"
"32",0.671875,-0.131836,0.695801,-0.236328,0.411621,0.791748,"27/2/2019",15,13,46,-43.4930476809301,0.0998535,0.0603027,318681,2019-02-27 15:13:46,"Eating"
"33",0.659912,-0.119873,0.719971,-0.237549,0.411621,0.793457,"27/2/2019",15,13,46,-42.1178424488903,0.0490723,0.0305176,318682,2019-02-27 15:13:46,"Eating"
"34",0.635986,-0.0839844,0.731934,-0.23877,0.411377,0.795166,"27/2/2019",15,13,46,-40.8023199783303,0.0385742,0.0234375,318683,2019-02-27 15:13:46,"Eating"
"35",0.623779,-0.0598145,0.695801,-0.23999,0.411377,0.797119,"27/2/2019",15,13,46,-41.7711087373413,0.109863,0.064209,318684,2019-02-27 15:13:46,"Eating"
"36",0.635986,-0.0717773,0.695801,-0.242676,0.410889,0.800781,"27/2/2019",15,13,46,-42.2774071234879,0.083252,0.0515137,318685,2019-02-27 15:13:46,"Eating"
"37",0.647949,-0.10791,0.707764,-0.242188,0.410645,0.801025,"27/2/2019",15,13,46,-42.1459989258001,0.045166,0.0319824,318686,2019-02-27 15:13:46,"Eating"
"38",0.635986,-0.10791,0.695801,-0.241699,0.410156,0.80127,"27/2/2019",15,13,46,-42.0894994742688,0.0708008,0.0458984,318687,2019-02-27 15:13:46,"Eating"
"39",0.635986,-0.131836,0.707764,-0.241211,0.409912,0.801514,"27/2/2019",15,13,46,-41.4570590043988,0.0837402,0.0510254,318688,2019-02-27 15:13:46,"Eating"
"40",0.647949,-0.131836,0.731934,-0.23999,0.408936,0.802002,"27/2/2019",15,13,46,-41.0635524808811,0.0473633,0.0402832,318689,2019-02-27 15:13:46,"Eating"
"41",0.587891,-0.131836,0.731934,-0.240234,0.409668,0.802246,"27/2/2019",15,13,47,-38.3257237971427,0.106201,0.0754395,318690,2019-02-27 15:13:47,"Eating"
"42",0.623779,-0.119873,0.731934,-0.240479,0.4104,0.802734,"27/2/2019",15,13,47,-40.0648199531107,0.0571289,0.0395508,318691,2019-02-27 15:13:47,"Eating"
"43",0.647949,-0.131836,0.755859,-0.240967,0.411133,0.802979,"27/2/2019",15,13,47,-40.1806263056948,0.0664063,0.0446777,318692,2019-02-27 15:13:47,"Eating"
"44",0.659912,-0.155762,0.743896,-0.241699,0.412598,0.803955,"27/2/2019",15,13,47,-40.9668968640814,0.0786133,0.0620117,318693,2019-02-27 15:13:47,"Eating"
"45",0.635986,-0.179932,0.719971,-0.23999,0.411621,0.803955,"27/2/2019",15,13,47,-40.5963073813135,0.114502,0.0866699,318694,2019-02-27 15:13:47,"Eating"
"46",0.683838,-0.0717773,0.815918,-0.238281,0.410645,0.803955,"27/2/2019",15,13,47,-39.8583909054511,0.137695,0.0922852,318695,2019-02-27 15:13:47,"Eating"
"47",0.719971,-0.0478516,0.803955,-0.236328,0.409424,0.803955,"27/2/2019",15,13,47,-41.7952604775055,0.185547,0.108398,318696,2019-02-27 15:13:47,"Eating"
"48",0.683838,-0.0239258,0.779785,-0.232666,0.407227,0.803955,"27/2/2019",15,13,47,-41.2360104664926,0.147949,0.0908203,318697,2019-02-27 15:13:47,"Eating"
"49",0.659912,-0.0239258,0.743896,-0.234619,0.407471,0.804199,"27/2/2019",15,13,47,-41.561608662819,0.0874023,0.0727539,318698,2019-02-27 15:13:47,"Eating"
"50",0.647949,-0.0478516,0.695801,-0.236816,0.407715,0.804688,"27/2/2019",15,13,47,-42.8931041446008,0.0925293,0.0603027,318699,2019-02-27 15:13:47,"Eating"
"51",0.635986,-0.0478516,0.695801,-0.239014,0.408203,0.804932,"27/2/2019",15,13,47,-42.3610762300842,0.105957,0.0639648,318700,2019-02-27 15:13:47,"Eating"
"52",0.659912,-0.0598145,0.695801,-0.243408,0.408936,0.805908,"27/2/2019",15,13,47,-43.3782902370219,0.0742188,0.0510254,318701,2019-02-27 15:13:47,"Eating"
"53",0.659912,-0.0598145,0.719971,-0.24292,0.409424,0.805908,"27/2/2019",15,13,47,-42.4096524608825,0.0495605,0.0375977,318702,2019-02-27 15:13:47,"Eating"
"54",0.695801,-0.0717773,0.719971,-0.242188,0.409912,0.805664,"27/2/2019",15,13,47,-43.8803755971727,0.0727539,0.0466309,318703,2019-02-27 15:13:47,"Eating"
"55",0.647949,-0.0478516,0.731934,-0.241455,0.4104,0.80542,"27/2/2019",15,13,47,-41.4564211542507,0.0588379,0.0480957,318704,2019-02-27 15:13:47,"Eating"
"56",0.659912,-0.0358887,0.731934,-0.23999,0.411621,0.804932,"27/2/2019",15,13,47,-42.0036230775555,0.0656738,0.0588379,318705,2019-02-27 15:13:47,"Eating"
"57",0.659912,-0.0598145,0.707764,-0.239258,0.411865,0.804932,"27/2/2019",15,13,47,-42.8944833772294,0.0551758,0.0388184,318706,2019-02-27 15:13:47,"Eating"
"58",0.635986,-0.0959473,0.707764,-0.238281,0.412354,0.805176,"27/2/2019",15,13,47,-41.6831474973682,0.0437012,0.0292969,318707,2019-02-27 15:13:47,"Eating"
"59",0.635986,-0.0717773,0.731934,-0.237305,0.412598,0.80542,"27/2/2019",15,13,47,-40.8520535487205,0.0505371,0.0322266,318708,2019-02-27 15:13:47,"Eating"
"60",0.635986,-0.0717773,0.731934,-0.235352,0.413574,0.805908,"27/2/2019",15,13,47,-40.8520535487205,0.050293,0.0324707,318709,2019-02-27 15:13:47,"Eating"
"61",0.659912,-0.0598145,0.731934,-0.235352,0.413574,0.805908,"27/2/2019",15,13,47,-41.9430170025755,0.0371094,0.032959,318710,2019-02-27 15:13:47,"Eating"
"62",0.671875,-0.0959473,0.731934,-0.235596,0.413574,0.806152,"27/2/2019",15,13,47,-42.3071480045442,0.017334,0.0119629,318711,2019-02-27 15:13:47,"Eating"
"63",0.671875,-0.119873,0.719971,-0.235596,0.413574,0.806396,"27/2/2019",15,13,47,-42.630357675555,0.0490723,0.0317383,318712,2019-02-27 15:13:47,"Eating"
"64",0.683838,-0.0839844,0.719971,-0.23584,0.413574,0.806396,"27/2/2019",15,13,47,-43.3322722634738,0.0400391,0.0263672,318713,2019-02-27 15:13:47,"Eating"
"65",0.683838,-0.0959473,0.731934,-0.23584,0.413574,0.806641,"27/2/2019",15,13,47,-42.8109062355128,0.0319824,0.0244141,318714,2019-02-27 15:13:47,"Eating"
"66",0.683838,-0.0717773,0.743896,-0.236084,0.413574,0.806885,"27/2/2019",15,13,47,-42.4590144073873,0.0600586,0.0349121,318715,2019-02-27 15:13:47,"Eating"
"67",0.683838,-0.0839844,0.755859,-0.236328,0.41333,0.806396,"27/2/2019",15,13,47,-41.9613353715267,0.0600586,0.0383301,318716,2019-02-27 15:13:47,"Eating"
"68",0.623779,-0.0959473,0.731934,-0.236816,0.412842,0.805908,"27/2/2019",15,13,47,-40.197964771633,0.0476074,0.0368652,318717,2019-02-27 15:13:47,"Eating"
"69",0.647949,-0.131836,0.743896,-0.237061,0.412598,0.805176,"27/2/2019",15,13,47,-40.6182503340225,0.0732422,0.0480957,318718,2019-02-27 15:13:47,"Eating"
"70",0.647949,-0.155762,0.755859,-0.238037,0.411621,0.803955,"27/2/2019",15,13,47,-40.0166021285568,0.111328,0.0756836,318719,2019-02-27 15:13:47,"Eating"
"71",0.659912,-0.155762,0.707764,-0.23877,0.411621,0.804199,"27/2/2019",15,13,47,-42.3209583718839,0.0847168,0.0710449,318720,2019-02-27 15:13:47,"Eating"
"72",0.671875,-0.131836,0.683838,-0.239502,0.411621,0.804688,"27/2/2019",15,13,47,-43.9718937885496,0.0981445,0.0622559,318721,2019-02-27 15:13:47,"Eating"
"73",0.659912,-0.119873,0.707764,-0.240234,0.411621,0.804932,"27/2/2019",15,13,47,-42.5922570007429,0.0527344,0.0390625,318722,2019-02-27 15:13:47,"Eating"
"74",0.599854,-0.10791,0.743896,-0.241699,0.411621,0.805908,"27/2/2019",15,13,47,-38.5904150334015,0.102051,0.0666504,318723,2019-02-27 15:13:47,"Eating"
"75",0.611816,-0.0717773,0.719971,-0.241455,0.412354,0.805908,"27/2/2019",15,13,47,-40.2174229870382,0.0649414,0.0493164,318724,2019-02-27 15:13:47,"Eating"
"76",0.635986,-0.0478516,0.695801,-0.241211,0.41333,0.805908,"27/2/2019",15,13,47,-42.3610762300842,0.0898438,0.0524902,318725,2019-02-27 15:13:47,"Eating"
"77",0.671875,-0.0478516,0.731934,-0.240723,0.414307,0.805908,"27/2/2019",15,13,47,-42.4893518548115,0.0517578,0.0371094,318726,2019-02-27 15:13:47,"Eating"
"78",0.659912,-0.0478516,0.743896,-0.23999,0.41626,0.805908,"27/2/2019",15,13,47,-41.5175942408786,0.0524902,0.0380859,318727,2019-02-27 15:13:47,"Eating"
"79",0.635986,-0.0598145,0.719971,-0.239258,0.41626,0.80542,"27/2/2019",15,13,47,-41.3580007580846,0.0527344,0.0334473,318728,2019-02-27 15:13:47,"Eating"
"80",0.683838,-0.10791,0.707764,-0.238281,0.416504,0.804932,"27/2/2019",15,13,48,-43.6861078769018,0.0695801,0.0405273,318729,2019-02-27 15:13:48,"Eating"
"81",0.695801,-0.0959473,0.707764,-0.237305,0.416748,0.804199,"27/2/2019",15,13,48,-44.2508746961153,0.0700684,0.0424805,318730,2019-02-27 15:13:48,"Eating"
"82",0.671875,-0.131836,0.731934,-0.235352,0.417236,0.802979,"27/2/2019",15,13,48,-42.0948800760024,0.0664063,0.0539551,318731,2019-02-27 15:13:48,"Eating"
"83",0.635986,-0.10791,0.719971,-0.235352,0.417236,0.803711,"27/2/2019",15,13,48,-41.1401910188556,0.0632324,0.0405273,318732,2019-02-27 15:13:48,"Eating"
"84",0.659912,-0.119873,0.719971,-0.235352,0.416992,0.804443,"27/2/2019",15,13,48,-42.1178424488903,0.0512695,0.0415039,318733,2019-02-27 15:13:48,"Eating"
"85",0.671875,-0.0959473,0.719971,-0.235352,0.416748,0.80542,"27/2/2019",15,13,48,-42.769425234926,0.0307617,0.0195313,318734,2019-02-27 15:13:48,"Eating"
"86",0.647949,-0.0959473,0.731934,-0.235352,0.41626,0.807129,"27/2/2019",15,13,48,-41.2749335919744,0.0412598,0.0253906,318735,2019-02-27 15:13:48,"Eating"
"87",0.659912,-0.0717773,0.743896,-0.236084,0.415527,0.807373,"27/2/2019",15,13,48,-41.4445569255699,0.0305176,0.0209961,318736,2019-02-27 15:13:48,"Eating"
"88",0.671875,-0.0717773,0.755859,-0.236816,0.414795,0.807861,"27/2/2019",15,13,48,-41.5058850937727,0.0466309,0.0344238,318737,2019-02-27 15:13:48,"Eating"
"89",0.671875,-0.0839844,0.731934,-0.237549,0.414063,0.808105,"27/2/2019",15,13,48,-42.3635950493028,0.0229492,0.0134277,318738,2019-02-27 15:13:48,"Eating"
"90",0.683838,-0.10791,0.743896,-0.239014,0.412598,0.809082,"27/2/2019",15,13,48,-42.2941620227285,0.0710449,0.041748,318739,2019-02-27 15:13:48,"Eating"
"91",0.683838,-0.0717773,0.719971,-0.239014,0.412598,0.808838,"27/2/2019",15,13,48,-43.3841175778688,0.0258789,0.0192871,318740,2019-02-27 15:13:48,"Eating"
"92",0.671875,-0.0598145,0.707764,-0.239258,0.412842,0.80835,"27/2/2019",15,13,48,-43.4080879241388,0.0371094,0.0229492,318741,2019-02-27 15:13:48,"Eating"
"93",0.659912,-0.0598145,0.707764,-0.239502,0.413086,0.808105,"27/2/2019",15,13,48,-42.8944833772294,0.036377,0.0224609,318742,2019-02-27 15:13:48,"Eating"
"94",0.671875,-0.0478516,0.719971,-0.23999,0.413574,0.807129,"27/2/2019",15,13,48,-42.9579212207221,0.0358887,0.029541,318743,2019-02-27 15:13:48,"Eating"
"95",0.659912,-0.0598145,0.707764,-0.239014,0.413086,0.806885,"27/2/2019",15,13,48,-42.8944833772294,0.0366211,0.0224609,318744,2019-02-27 15:13:48,"Eating"
"96",0.683838,-0.0598145,0.731934,-0.237793,0.412598,0.806396,"27/2/2019",15,13,48,-42.9592090040813,0.0458984,0.0268555,318745,2019-02-27 15:13:48,"Eating"
"97",0.671875,-0.0839844,0.707764,-0.236816,0.412109,0.805908,"27/2/2019",15,13,48,-43.3099084914815,0.0266113,0.0161133,318746,2019-02-27 15:13:48,"Eating"
"98",0.659912,-0.0717773,0.695801,-0.234375,0.410889,0.804932,"27/2/2019",15,13,48,-43.3322072693807,0.0351563,0.026123,318747,2019-02-27 15:13:48,"Eating"
"99",0.695801,-0.0598145,0.719971,-0.235107,0.410889,0.804932,"27/2/2019",15,13,48,-43.9234812058994,0.0471191,0.0339355,318748,2019-02-27 15:13:48,"Eating"
"100",0.683838,-0.0598145,0.707764,-0.23584,0.411133,0.804932,"27/2/2019",15,13,48,-43.9131279092022,0.0454102,0.0263672,318749,2019-02-27 15:13:48,"Eating"
"101",0.671875,-0.0717773,0.719971,-0.236572,0.411133,0.804932,"27/2/2019",15,13,48,-42.8795997298332,0.0078125,0.00610352,318750,2019-02-27 15:13:48,"Eating"
"102",0.671875,-0.0717773,0.707764,-0.238037,0.411621,0.804932,"27/2/2019",15,13,48,-43.363533580519,0.0185547,0.0129395,318751,2019-02-27 15:13:48,"Eating"
"103",0.659912,-0.0839844,0.707764,-0.238525,0.411621,0.804932,"27/2/2019",15,13,48,-42.7964206387735,0.0290527,0.017334,318752,2019-02-27 15:13:48,"Eating"
"104",0.671875,-0.0959473,0.707764,-0.239014,0.411865,0.805176,"27/2/2019",15,13,48,-43.2494502810308,0.0412598,0.0273438,318753,2019-02-27 15:13:48,"Eating"
"105",0.671875,-0.0959473,0.719971,-0.239502,0.412109,0.80542,"27/2/2019",15,13,48,-42.769425234926,0.0305176,0.0244141,318754,2019-02-27 15:13:48,"Eating"
"106",0.671875,-0.0839844,0.743896,-0.240723,0.412598,0.805908,"27/2/2019",15,13,48,-41.9074213961451,0.0422363,0.0280762,318755,2019-02-27 15:13:48,"Eating"
"107",0.671875,-0.0717773,0.719971,-0.240234,0.412598,0.805664,"27/2/2019",15,13,48,-42.8795997298332,0.00927734,0.00683594,318756,2019-02-27 15:13:48,"Eating"
"108",0.671875,-0.0717773,0.707764,-0.239746,0.412354,0.805176,"27/2/2019",15,13,48,-43.363533580519,0.0195313,0.0126953,318757,2019-02-27 15:13:48,"Eating"
"109",0.671875,-0.0717773,0.683838,-0.239258,0.412109,0.804932,"27/2/2019",15,13,48,-44.3375144624359,0.0424805,0.0349121,318758,2019-02-27 15:13:48,"Eating"
"110",0.659912,-0.0478516,0.695801,-0.238037,0.411621,0.803955,"27/2/2019",15,13,48,-43.4161087424321,0.0529785,0.0336914,318759,2019-02-27 15:13:48,"Eating"
"111",0.659912,-0.0839844,0.767822,-0.239014,0.412598,0.804932,"27/2/2019",15,13,48,-40.5093849791048,0.0688477,0.052002,318760,2019-02-27 15:13:48,"Eating"
"112",0.647949,-0.0478516,0.779785,-0.23999,0.413818,0.805908,"27/2/2019",15,13,48,-39.6713881172994,0.101563,0.0681152,318761,2019-02-27 15:13:48,"Eating"
"113",0.647949,-0.0358887,0.755859,-0.241211,0.414795,0.806885,"27/2/2019",15,13,48,-40.5724730366352,0.0878906,0.0527344,318762,2019-02-27 15:13:48,"Eating"
"114",0.647949,-0.0478516,0.743896,-0.243408,0.417236,0.809082,"27/2/2019",15,13,48,-40.9979678755455,0.0629883,0.0368652,318763,2019-02-27 15:13:48,"Eating"
"115",0.659912,-0.0717773,0.731934,-0.243408,0.416504,0.809326,"27/2/2019",15,13,48,-41.9015076943237,0.027832,0.017334,318764,2019-02-27 15:13:48,"Eating"
"116",0.671875,-0.0239258,0.707764,-0.243408,0.415771,0.80957,"27/2/2019",15,13,48,-43.4935450745164,0.0546875,0.0419922,318765,2019-02-27 15:13:48,"Eating"
"117",0.671875,-0.0239258,0.695801,-0.243164,0.415039,0.809814,"27/2/2019",15,13,48,-43.9808590236439,0.065918,0.0458984,318766,2019-02-27 15:13:48,"Eating"
"118",0.671875,-0.0239258,0.731934,-0.243164,0.414063,0.810059,"27/2/2019",15,13,48,-42.5349739292874,0.0598145,0.043457,318767,2019-02-27 15:13:48,"Eating"
"119",0.671875,-0.0478516,0.743896,-0.24292,0.41333,0.810303,"27/2/2019",15,13,49,-42.0290088304281,0.048584,0.0324707,318768,2019-02-27 15:13:49,"Eating"
"120",0.671875,-0.0839844,0.755859,-0.24292,0.412598,0.810547,"27/2/2019",15,13,49,-41.4590729841274,0.0615234,0.0437012,318769,2019-02-27 15:13:49,"Eating"
"121",0.671875,-0.10791,0.731934,-0.242676,0.41333,0.810547,"27/2/2019",15,13,49,-42.2434776165108,0.0612793,0.0449219,318770,2019-02-27 15:13:49,"Eating"
"122",0.659912,-0.131836,0.695801,-0.242432,0.414307,0.810547,"27/2/2019",15,13,49,-42.979347012724,0.0935059,0.0688477,318771,2019-02-27 15:13:49,"Eating"
"123",0.683838,-0.143799,0.719971,-0.242188,0.415283,0.810303,"27/2/2019",15,13,49,-42.966331043224,0.0976563,0.0795898,318772,2019-02-27 15:13:49,"Eating"
"124",0.683838,-0.131836,0.707764,-0.241699,0.417236,0.810059,"27/2/2019",15,13,49,-43.5268892808612,0.0905762,0.0686035,318773,2019-02-27 15:13:49,"Eating"
"125",0.683838,-0.0959473,0.695801,-0.241699,0.41626,0.810059,"27/2/2019",15,13,49,-44.233449031636,0.0673828,0.0405273,318774,2019-02-27 15:13:49,"Eating"
"126",0.683838,-0.0839844,0.707764,-0.241455,0.415039,0.810303,"27/2/2019",15,13,49,-43.8148644900801,0.0439453,0.0268555,318775,2019-02-27 15:13:49,"Eating"
"127",0.683838,-0.0717773,0.683838,-0.241211,0.414063,0.810547,"27/2/2019",15,13,49,-44.8430552408694,0.0566406,0.0366211,318776,2019-02-27 15:13:49,"Eating"
"128",0.707764,-0.0119629,0.719971,-0.240723,0.411621,0.811035,"27/2/2019",15,13,49,-44.506184909963,0.0949707,0.0646973,318777,2019-02-27 15:13:49,"Eating"
"129",0.683838,0,0.707764,-0.240723,0.411621,0.811035,"27/2/2019",15,13,49,-44.0150030198812,0.0856934,0.0646973,318778,2019-02-27 15:13:49,"Eating"
"130",0.683838,-0.0478516,0.683838,-0.240479,0.411377,0.810791,"27/2/2019",15,13,49,-44.9300339145884,0.0605469,0.0373535,318779,2019-02-27 15:13:49,"Eating"
"131",0.671875,-0.0358887,0.683838,-0.240479,0.411377,0.810547,"27/2/2019",15,13,49,-44.4550358176559,0.0593262,0.0397949,318780,2019-02-27 15:13:49,"Eating"
"132",0.659912,-0.0239258,0.671875,-0.23999,0.410889,0.810059,"27/2/2019",15,13,49,-44.4671951401746,0.0883789,0.0571289,318781,2019-02-27 15:13:49,"Eating"
"133",0.683838,-0.0358887,0.743896,-0.239014,0.409912,0.810059,"27/2/2019",15,13,49,-42.5580772134574,0.0698242,0.0415039,318782,2019-02-27 15:13:49,"Eating"
"134",0.683838,-0.0717773,0.719971,-0.237793,0.408691,0.810059,"27/2/2019",15,13,49,-43.3841175778688,0.0302734,0.0185547,318783,2019-02-27 15:13:49,"Eating"
"135",0.623779,-0.0358887,0.695801,-0.236816,0.407715,0.810059,"27/2/2019",15,13,49,-41.8380975102241,0.0900879,0.0554199,318784,2019-02-27 15:13:49,"Eating"
"136",0.647949,-0.0239258,0.707764,-0.234375,0.405273,0.810059,"27/2/2019",15,13,49,-42.4574132411956,0.0664063,0.0444336,318785,2019-02-27 15:13:49,"Eating"
"137",0.647949,-0.0239258,0.755859,-0.234619,0.406494,0.809326,"27/2/2019",15,13,49,-40.5901713107782,0.101318,0.0605469,318786,2019-02-27 15:13:49,"Eating"
"138",0.635986,-0.0358887,0.707764,-0.235107,0.407715,0.808594,"27/2/2019",15,13,49,-41.9058129924056,0.0664063,0.0429688,318787,2019-02-27 15:13:49,"Eating"
"139",0.683838,-0.0119629,0.683838,-0.235352,0.408936,0.807617,"27/2/2019",15,13,49,-44.9956170887357,0.0961914,0.0610352,318788,2019-02-27 15:13:49,"Eating"
"140",0.647949,-0.0239258,0.683838,-0.236328,0.411621,0.805908,"27/2/2019",15,13,49,-43.438868869752,0.0913086,0.0541992,318789,2019-02-27 15:13:49,"Eating"
"141",0.671875,-0.0119629,0.683838,-0.236328,0.411621,0.807617,"27/2/2019",15,13,49,-44.490044974703,0.0849609,0.0598145,318790,2019-02-27 15:13:49,"Eating"
"142",0.671875,-0.0239258,0.707764,-0.236328,0.411865,0.80957,"27/2/2019",15,13,49,-43.4935450745164,0.0493164,0.0393066,318791,2019-02-27 15:13:49,"Eating"
"143",0.683838,-0.0478516,0.731934,-0.236328,0.412109,0.811279,"27/2/2019",15,13,49,-42.9933737445156,0.0439453,0.0253906,318792,2019-02-27 15:13:49,"Eating"
"144",0.671875,-0.119873,0.683838,-0.236328,0.412598,0.815186,"27/2/2019",15,13,49,-44.0610479607361,0.0947266,0.0673828,318793,2019-02-27 15:13:49,"Eating"
"145",0.635986,-0.143799,0.743896,-0.236084,0.412598,0.813477,"27/2/2019",15,13,49,-40.0101087217901,0.14209,0.0927734,318794,2019-02-27 15:13:49,"Eating"
"146",0.647949,-0.143799,0.731934,-0.235596,0.412354,0.811523,"27/2/2019",15,13,49,-40.9792318590697,0.119141,0.0871582,318795,2019-02-27 15:13:49,"Eating"
"147",0.671875,-0.10791,0.731934,-0.235352,0.412109,0.809814,"27/2/2019",15,13,49,-42.2434776165108,0.0664063,0.0505371,318796,2019-02-27 15:13:49,"Eating"
"148",0.671875,-0.0839844,0.719971,-0.234375,0.411621,0.805908,"27/2/2019",15,13,49,-42.8278148322235,0.0317383,0.0253906,318797,2019-02-27 15:13:49,"Eating"
"149",0.659912,-0.0478516,0.731934,-0.235107,0.411133,0.807861,"27/2/2019",15,13,49,-41.9770745114557,0.0349121,0.0205078,318798,2019-02-27 15:13:49,"Eating"
"150",0.659912,-0.0358887,0.719971,-0.23584,0.410645,0.809814,"27/2/2019",15,13,49,-42.4723799164017,0.0344238,0.0244141,318799,2019-02-27 15:13:49,"Eating"
"151",0.647949,-0.0239258,0.695801,-0.236572,0.410156,0.812012,"27/2/2019",15,13,49,-42.9436304724488,0.0791016,0.046875,318800,2019-02-27 15:13:49,"Eating"
"152",0.671875,-0.0119629,0.695801,-0.238037,0.408936,0.816162,"27/2/2019",15,13,49,-43.9935441408578,0.0737305,0.0532227,318801,2019-02-27 15:13:49,"Eating"
"153",0.671875,-0.0119629,0.707764,-0.237549,0.411133,0.814941,"27/2/2019",15,13,49,-43.5057961438295,0.0627441,0.0505371,318802,2019-02-27 15:13:49,"Eating"
"154",0.671875,-0.0119629,0.707764,-0.237061,0.413574,0.813721,"27/2/2019",15,13,49,-43.5057961438295,0.0634766,0.0517578,318803,2019-02-27 15:13:49,"Eating"
"155",0.647949,-0.0239258,0.707764,-0.236572,0.416016,0.8125,"27/2/2019",15,13,49,-42.4574132411956,0.0686035,0.0454102,318804,2019-02-27 15:13:49,"Eating"
"156",0.659912,-0.0119629,0.695801,-0.235352,0.420898,0.810059,"27/2/2019",15,13,49,-43.4793688158978,0.0805664,0.0561523,318805,2019-02-27 15:13:49,"Eating"
"157",0.671875,-0.0717773,0.707764,-0.236084,0.419922,0.810059,"27/2/2019",15,13,49,-43.363533580519,0.0187988,0.0114746,318806,2019-02-27 15:13:49,"Eating"
"158",0.671875,-0.0717773,0.707764,-0.236816,0.418701,0.809814,"27/2/2019",15,13,49,-43.363533580519,0.0187988,0.0114746,318807,2019-02-27 15:13:49,"Eating"
"159",0.671875,-0.0959473,0.719971,-0.237549,0.417725,0.80957,"27/2/2019",15,13,49,-42.769425234926,0.0395508,0.0322266,318808,2019-02-27 15:13:49,"Eating"
"160",0.671875,-0.131836,0.707764,-0.239014,0.415283,0.809082,"27/2/2019",15,13,50,-43.0222135838259,0.0810547,0.0688477,318809,2019-02-27 15:13:50,"Eating"
"161",0.659912,-0.143799,0.695801,-0.239014,0.415283,0.809082,"27/2/2019",15,13,50,-42.8857217379683,0.107422,0.0830078,318810,2019-02-27 15:13:50,"Eating"
"162",0.671875,-0.0959473,0.731934,-0.23877,0.415283,0.809082,"27/2/2019",15,13,50,-42.3071480045442,0.0556641,0.0378418,318811,2019-02-27 15:13:50,"Eating"
"163",0.671875,-0.0717773,0.731934,-0.238525,0.415283,0.809082,"27/2/2019",15,13,50,-42.4136522217864,0.0332031,0.0202637,318812,2019-02-27 15:13:50,"Eating"
"164",0.671875,-0.0358887,0.707764,-0.238037,0.415283,0.809082,"27/2/2019",15,13,50,-43.473150526374,0.0383301,0.026123,318813,2019-02-27 15:13:50,"Eating"
"165",0.659912,-0.0358887,0.683838,-0.23877,0.414063,0.809082,"27/2/2019",15,13,50,-43.9405617265845,0.0598145,0.0393066,318814,2019-02-27 15:13:50,"Eating"
"166",0.635986,-0.0358887,0.731934,-0.239502,0.412842,0.809326,"27/2/2019",15,13,50,-40.953700956097,0.0686035,0.0405273,318815,2019-02-27 15:13:50,"Eating"
"167",0.647949,-0.0598145,0.731934,-0.240234,0.411621,0.80957,"27/2/2019",15,13,50,-41.4224351901216,0.032959,0.0231934,318816,2019-02-27 15:13:50,"Eating"
"168",0.659912,-0.0478516,0.707764,-0.241699,0.408936,0.810059,"27/2/2019",15,13,50,-42.9310017599384,0.0251465,0.015625,318817,2019-02-27 15:13:50,"Eating"
"169",0.707764,-0.0358887,0.707764,-0.241211,0.409424,0.809814,"27/2/2019",15,13,50,-44.9632173255499,0.0773926,0.0512695,318818,2019-02-27 15:13:50,"Eating"
"170",0.695801,-0.0598145,0.719971,-0.240479,0.410156,0.809326,"27/2/2019",15,13,50,-43.9234812058994,0.0366211,0.0322266,318819,2019-02-27 15:13:50,"Eating"
"171",0.683838,-0.0717773,0.731934,-0.239746,0.410889,0.808838,"27/2/2019",15,13,50,-42.9175670505725,0.0458984,0.0273438,318820,2019-02-27 15:13:50,"Eating"
"172",0.695801,-0.0717773,0.707764,-0.239258,0.411377,0.808594,"27/2/2019",15,13,50,-44.3651242810604,0.0539551,0.0358887,318821,2019-02-27 15:13:50,"Eating"
"173",0.695801,-0.0839844,0.707764,-0.238525,0.412109,0.808105,"27/2/2019",15,13,50,-44.3114230118981,0.0671387,0.0415039,318822,2019-02-27 15:13:50,"Eating"
"174",0.683838,-0.0839844,0.707764,-0.237793,0.412842,0.807617,"27/2/2019",15,13,50,-43.8148644900801,0.0554199,0.0332031,318823,2019-02-27 15:13:50,"Eating"
"175",0.683838,-0.0717773,0.707764,-0.238037,0.41333,0.807617,"27/2/2019",15,13,50,-43.8685361881229,0.0446777,0.0270996,318824,2019-02-27 15:13:50,"Eating"
"176",0.671875,-0.0717773,0.719971,-0.238525,0.413818,0.807617,"27/2/2019",15,13,50,-42.8795997298332,0.0205078,0.0144043,318825,2019-02-27 15:13:50,"Eating"
"177",0.659912,-0.0839844,0.731934,-0.239014,0.414307,0.807373,"27/2/2019",15,13,50,-41.8515403067772,0.0361328,0.0251465,318826,2019-02-27 15:13:50,"Eating"
"178",0.671875,-0.0839844,0.719971,-0.23999,0.415283,0.807129,"27/2/2019",15,13,50,-42.8278148322235,0.0319824,0.0241699,318827,2019-02-27 15:13:50,"Eating"
"179",0.683838,-0.0717773,0.743896,-0.23999,0.415283,0.807129,"27/2/2019",15,13,50,-42.4590144073873,0.0549316,0.0332031,318828,2019-02-27 15:13:50,"Eating"
"180",0.683838,-0.0478516,0.743896,-0.23999,0.415283,0.807129,"27/2/2019",15,13,50,-42.5323251960812,0.0588379,0.034668,318829,2019-02-27 15:13:50,"Eating"
"181",0.659912,-0.0478516,0.755859,-0.23999,0.415283,0.807129,"27/2/2019",15,13,50,-41.0662232352023,0.052002,0.0380859,318830,2019-02-27 15:13:50,"Eating"
"182",0.671875,-0.0478516,0.755859,-0.23999,0.415283,0.807129,"27/2/2019",15,13,50,-41.5766618101155,0.059082,0.0388184,318831,2019-02-27 15:13:50,"Eating"
"183",0.671875,-0.0358887,0.767822,-0.23999,0.415283,0.806641,"27/2/2019",15,13,50,-41.1562438598254,0.0844727,0.0554199,318832,2019-02-27 15:13:50,"Eating"
"184",0.671875,-0.0717773,0.719971,-0.240234,0.415283,0.805908,"27/2/2019",15,13,50,-42.8795997298332,0.0170898,0.0117188,318833,2019-02-27 15:13:50,"Eating"
"185",0.671875,-0.0478516,0.695801,-0.240234,0.415283,0.80542,"27/2/2019",15,13,50,-43.9302326807248,0.0537109,0.032959,318834,2019-02-27 15:13:50,"Eating"
"186",0.659912,-0.0239258,0.671875,-0.240723,0.415283,0.803955,"27/2/2019",15,13,50,-44.4671951401746,0.0922852,0.0639648,318835,2019-02-27 15:13:50,"Eating"
"187",0.671875,-0.0119629,0.683838,-0.239746,0.415283,0.804688,"27/2/2019",15,13,50,-44.490044974703,0.0986328,0.0644531,318836,2019-02-27 15:13:50,"Eating"
"188",0.683838,-0.0119629,0.755859,-0.23877,0.415527,0.80542,"27/2/2019",15,13,50,-42.1325900674954,0.107666,0.0656738,318837,2019-02-27 15:13:50,"Eating"
"189",0.671875,-0.0839844,0.743896,-0.237549,0.415771,0.806396,"27/2/2019",15,13,50,-41.9074213961451,0.0541992,0.0327148,318838,2019-02-27 15:13:50,"Eating"
"190",0.635986,-0.143799,0.779785,-0.235352,0.41626,0.808105,"27/2/2019",15,13,50,-38.7319745843447,0.165039,0.103027,318839,2019-02-27 15:13:50,"Eating"
"191",0.635986,-0.143799,0.743896,-0.235352,0.415771,0.809082,"27/2/2019",15,13,50,-40.0101087217901,0.128662,0.0876465,318840,2019-02-27 15:13:50,"Eating"
"192",0.635986,-0.155762,0.731934,-0.235107,0.415283,0.810059,"27/2/2019",15,13,50,-40.3605530993834,0.127441,0.0961914,318841,2019-02-27 15:13:50,"Eating"
"193",0.647949,-0.143799,0.707764,-0.234863,0.414795,0.811035,"27/2/2019",15,13,50,-41.8971052982104,0.107422,0.0817871,318842,2019-02-27 15:13:50,"Eating"
"194",0.659912,-0.0839844,0.707764,-0.234375,0.413574,0.813232,"27/2/2019",15,13,50,-42.7964206387735,0.0349121,0.0241699,318843,2019-02-27 15:13:50,"Eating"
"195",0.671875,-0.0839844,0.695801,-0.235107,0.414307,0.811768,"27/2/2019",15,13,50,-43.790751052667,0.0559082,0.0344238,318844,2019-02-27 15:13:50,"Eating"
"196",0.671875,-0.0478516,0.695801,-0.23584,0.415283,0.810303,"27/2/2019",15,13,50,-43.9302326807248,0.0581055,0.0356445,318845,2019-02-27 15:13:50,"Eating"
"197",0.659912,-0.0598145,0.719971,-0.236572,0.416016,0.808838,"27/2/2019",15,13,50,-42.4096524608825,0.0141602,0.00952148,318846,2019-02-27 15:13:50,"Eating"
"198",0.623779,0.0119629,0.743896,-0.238037,0.417969,0.805908,"27/2/2019",15,13,50,-39.9771899517903,0.137939,0.0910645,318847,2019-02-27 15:13:50,"Eating"
"199",0.623779,-0.0239258,0.743896,-0.237549,0.417969,0.806641,"27/2/2019",15,13,50,-39.9662547356461,0.103516,0.0625,318848,2019-02-27 15:13:50,"Eating"
"200",0.647949,-0.0598145,0.719971,-0.237061,0.418213,0.807373,"27/2/2019",15,13,51,-41.8881542563543,0.026123,0.0168457,318849,2019-02-27 15:13:51,"Eating"
"201",0.587891,-0.0239258,0.719971,-0.236572,0.418457,0.80835,"27/2/2019",15,13,51,-39.2178041212295,0.121338,0.0859375,318850,2019-02-27 15:13:51,"Eating"
"202",0.623779,-0.0239258,0.707764,-0.235352,0.418945,0.810059,"27/2/2019",15,13,51,-41.3747095520652,0.0969238,0.0595703,318851,2019-02-27 15:13:51,"Eating"
"203",0.659912,-0.0717773,0.695801,-0.235352,0.419678,0.810059,"27/2/2019",15,13,51,-43.3322072693807,0.0334473,0.0280762,318852,2019-02-27 15:13:51,"Eating"
"204",0.659912,-0.0717773,0.683838,-0.235596,0.420654,0.810059,"27/2/2019",15,13,51,-43.8231037977605,0.045166,0.0400391,318853,2019-02-27 15:13:51,"Eating"
"205",0.659912,-0.0959473,0.695801,-0.23584,0.421631,0.810059,"27/2/2019",15,13,51,-43.2142333110914,0.0561523,0.0393066,318854,2019-02-27 15:13:51,"Eating"
"206",0.659912,-0.10791,0.731934,-0.236328,0.423584,0.810059,"27/2/2019",15,13,51,-41.7316446813447,0.045166,0.0388184,318855,2019-02-27 15:13:51,"Eating"
"207",0.659912,-0.143799,0.731934,-0.236328,0.423584,0.809326,"27/2/2019",15,13,51,-41.4988134113695,0.0803223,0.0734863,318856,2019-02-27 15:13:51,"Eating"
"208",0.671875,-0.0478516,0.719971,-0.236328,0.423584,0.808594,"27/2/2019",15,13,51,-42.9579212207221,0.0390625,0.026123,318857,2019-02-27 15:13:51,"Eating"
"209",0.683838,-0.0119629,0.743896,-0.236328,0.423584,0.807617,"27/2/2019",15,13,51,-42.5875675312225,0.102295,0.0664063,318858,2019-02-27 15:13:51,"Eating"
"210",0.659912,-0.0239258,0.755859,-0.236328,0.423584,0.805908,"27/2/2019",15,13,51,-41.1087719220871,0.0786133,0.0563965,318859,2019-02-27 15:13:51,"Eating"
"211",0.647949,-0.0478516,0.743896,-0.236328,0.423828,0.806641,"27/2/2019",15,13,51,-40.9979678755455,0.0534668,0.0317383,318860,2019-02-27 15:13:51,"Eating"
"212",0.647949,-0.0358887,0.755859,-0.236084,0.424072,0.807373,"27/2/2019",15,13,51,-40.5724730366352,0.0766602,0.0473633,318861,2019-02-27 15:13:51,"Eating"
"213",0.647949,-0.0478516,0.743896,-0.23584,0.424561,0.80835,"27/2/2019",15,13,51,-40.9979678755455,0.052002,0.0307617,318862,2019-02-27 15:13:51,"Eating"
"214",0.623779,-0.0478516,0.743896,-0.235352,0.425293,0.810059,"27/2/2019",15,13,51,-39.9226058586856,0.0756836,0.0456543,318863,2019-02-27 15:13:51,"Eating"
"215",0.635986,-0.0598145,0.731934,-0.235352,0.425293,0.80957,"27/2/2019",15,13,51,-40.8933710295905,0.0393066,0.0263672,318864,2019-02-27 15:13:51,"Eating"
"216",0.659912,-0.0717773,0.707764,-0.235596,0.425537,0.809082,"27/2/2019",15,13,51,-42.8499812438412,0.0212402,0.015625,318865,2019-02-27 15:13:51,"Eating"
"217",0.671875,-0.0119629,0.743896,-0.23584,0.425781,0.80835,"27/2/2019",15,13,51,-42.0841597685459,0.0856934,0.0578613,318866,2019-02-27 15:13:51,"Eating"
"218",0.659912,-0.0358887,0.731934,-0.236328,0.42627,0.807129,"27/2/2019",15,13,51,-42.0036230775555,0.0393066,0.029541,318867,2019-02-27 15:13:51,"Eating"
"219",0.671875,-0.0358887,0.707764,-0.236572,0.426514,0.806641,"27/2/2019",15,13,51,-43.473150526374,0.0534668,0.0332031,318868,2019-02-27 15:13:51,"Eating"
"220",0.647949,-0.0598145,0.707764,-0.236816,0.426758,0.805908,"27/2/2019",15,13,51,-42.3721792154721,0.0324707,0.0202637,318869,2019-02-27 15:13:51,"Eating"
"221",0.683838,-0.0839844,0.731934,-0.237305,0.427246,0.80542,"27/2/2019",15,13,51,-42.8674371460991,0.050293,0.0307617,318870,2019-02-27 15:13:51,"Eating"
"222",0.647949,-0.10791,0.695801,-0.238037,0.427979,0.803955,"27/2/2019",15,13,51,-42.62108438187,0.0805664,0.0505371,318871,2019-02-27 15:13:51,"Eating"
"223",0.647949,-0.143799,0.707764,-0.238037,0.42749,0.804199,"27/2/2019",15,13,51,-41.8971052982104,0.103516,0.0786133,318872,2019-02-27 15:13:51,"Eating"
"224",0.659912,-0.143799,0.731934,-0.238281,0.427002,0.804688,"27/2/2019",15,13,51,-41.4988134113695,0.0878906,0.076416,318873,2019-02-27 15:13:51,"Eating"
"225",0.659912,-0.0717773,0.707764,-0.238281,0.426514,0.805176,"27/2/2019",15,13,51,-42.8499812438412,0.0166016,0.0126953,318874,2019-02-27 15:13:51,"Eating"
"226",0.671875,-0.0717773,0.719971,-0.238525,0.426025,0.805664,"27/2/2019",15,13,51,-42.8795997298332,0.0126953,0.010498,318875,2019-02-27 15:13:51,"Eating"
"227",0.659912,-0.0358887,0.731934,-0.238525,0.425537,0.806152,"27/2/2019",15,13,51,-42.0036230775555,0.048584,0.0368652,318876,2019-02-27 15:13:51,"Eating"
"228",0.635986,-0.0598145,0.707764,-0.23877,0.425049,0.806641,"27/2/2019",15,13,51,-41.8410415569355,0.0498047,0.0307617,318877,2019-02-27 15:13:51,"Eating"
"229",0.647949,-0.0478516,0.755859,-0.238281,0.425049,0.807617,"27/2/2019",15,13,51,-40.5477354289341,0.0742188,0.0456543,318878,2019-02-27 15:13:51,"Eating"
"230",0.635986,-0.0358887,0.743896,-0.237549,0.424805,0.808594,"27/2/2019",15,13,51,-40.4955441087546,0.0864258,0.0507813,318879,2019-02-27 15:13:51,"Eating"
"231",0.647949,-0.0717773,0.743896,-0.236816,0.424805,0.809814,"27/2/2019",15,13,51,-40.9251060847994,0.0393066,0.0283203,318880,2019-02-27 15:13:51,"Eating"
"232",0.659912,-0.0717773,0.743896,-0.235352,0.424316,0.812012,"27/2/2019",15,13,51,-41.4445569255699,0.0292969,0.0251465,318881,2019-02-27 15:13:51,"Eating"
"233",0.659912,-0.0959473,0.755859,-0.235352,0.425049,0.811035,"27/2/2019",15,13,51,-40.8962374174472,0.0664063,0.0458984,318882,2019-02-27 15:13:51,"Eating"
"234",0.671875,-0.10791,0.731934,-0.235352,0.426025,0.810059,"27/2/2019",15,13,51,-42.2434776165108,0.0620117,0.043457,318883,2019-02-27 15:13:51,"Eating"
"235",0.671875,-0.0959473,0.743896,-0.235352,0.427002,0.809082,"27/2/2019",15,13,51,-41.8528369906207,0.0620117,0.0383301,318884,2019-02-27 15:13:51,"Eating"
"236",0.659912,-0.0959473,0.719971,-0.235352,0.428955,0.807129,"27/2/2019",15,13,51,-42.2566875267544,0.0302734,0.0280762,318885,2019-02-27 15:13:51,"Eating"
"237",0.671875,-0.10791,0.695801,-0.235352,0.427979,0.808838,"27/2/2019",15,13,51,-43.6576188533535,0.0742188,0.0471191,318886,2019-02-27 15:13:51,"Eating"
"238",0.683838,-0.155762,0.683838,-0.235352,0.427002,0.810547,"27/2/2019",15,13,51,-44.2755588433537,0.143311,0.0949707,318887,2019-02-27 15:13:51,"Eating"
"239",0.671875,-0.0717773,0.647949,-0.235352,0.425781,0.8125,"27/2/2019",15,13,52,-45.8639462268545,0.0808105,0.0708008,318888,2019-02-27 15:13:52,"Eating"
"240",0.671875,-0.0478516,0.731934,-0.235352,0.423584,0.816162,"27/2/2019",15,13,52,-42.4893518548115,0.0498047,0.03125,318889,2019-02-27 15:13:52,"Eating"
"241",0.671875,-0.0478516,0.731934,-0.235596,0.425293,0.815918,"27/2/2019",15,13,52,-42.4893518548115,0.0493164,0.0310059,318890,2019-02-27 15:13:52,"Eating"
"242",0.647949,-0.0959473,0.731934,-0.23584,0.427002,0.81543,"27/2/2019",15,13,52,-41.2749335919744,0.0505371,0.0297852,318891,2019-02-27 15:13:52,"Eating"
"243",0.659912,-0.0959473,0.743896,-0.236328,0.428955,0.815186,"27/2/2019",15,13,52,-41.3417874234589,0.0510254,0.0332031,318892,2019-02-27 15:13:52,"Eating"
"244",0.623779,-0.10791,0.743896,-0.237061,0.432617,0.814209,"27/2/2019",15,13,52,-39.6873896498189,0.0996094,0.0585938,318893,2019-02-27 15:13:52,"Eating"
"245",0.611816,-0.10791,0.755859,-0.237549,0.431885,0.81543,"27/2/2019",15,13,52,-38.7054256737325,0.123291,0.0727539,318894,2019-02-27 15:13:52,"Eating"
"246",0.647949,-0.119873,0.719971,-0.238037,0.430908,0.81665,"27/2/2019",15,13,52,-41.5969011632509,0.0637207,0.0488281,318895,2019-02-27 15:13:52,"Eating"
"247",0.659912,-0.0839844,0.695801,-0.23877,0.429932,0.817871,"27/2/2019",15,13,52,-43.2767491728419,0.0383301,0.0253906,318896,2019-02-27 15:13:52,"Eating"
"248",0.671875,-0.0598145,0.671875,-0.23999,0.427979,0.820313,"27/2/2019",15,13,52,-44.8869209573934,0.0654297,0.048584,318897,2019-02-27 15:13:52,"Eating"
"249",0.671875,-0.0119629,0.695801,-0.23999,0.427979,0.822266,"27/2/2019",15,13,52,-43.9935441408578,0.0898438,0.0646973,318898,2019-02-27 15:13:52,"Eating"
"250",0.683838,0.0239258,0.719971,-0.23999,0.427979,0.824219,"27/2/2019",15,13,52,-43.5097861586434,0.118408,0.098877,318899,2019-02-27 15:13:52,"Eating"
"251",0.707764,0.0358887,0.695801,-0.23999,0.427979,0.826416,"27/2/2019",15,13,52,-45.4502854908803,0.174316,0.119385,318900,2019-02-27 15:13:52,"Eating"
"252",0.695801,0.0119629,0.683838,-0.23999,0.427979,0.830566,"27/2/2019",15,13,52,-45.4924232340996,0.150391,0.097168,318901,2019-02-27 15:13:52,"Eating"
"253",0.683838,0,0.659912,-0.239258,0.42627,0.829346,"27/2/2019",15,13,52,-46.0200662172493,0.149902,0.0952148,318902,2019-02-27 15:13:52,"Eating"
"254",0.683838,-0.0239258,0.659912,-0.238525,0.424561,0.828125,"27/2/2019",15,13,52,-46.0012614519522,0.125977,0.078125,318903,2019-02-27 15:13:52,"Eating"
"255",0.719971,-0.0239258,0.695801,-0.237793,0.422607,0.826904,"27/2/2019",15,13,52,-45.9611392534912,0.124756,0.0771484,318904,2019-02-27 15:13:52,"Eating"
"256",0.707764,-0.0358887,0.695801,-0.236328,0.418945,0.824463,"27/2/2019",15,13,52,-45.4502854908803,0.0981445,0.0595703,318905,2019-02-27 15:13:52,"Eating"
"257",0.695801,-0.0358887,0.755859,-0.237305,0.418945,0.822998,"27/2/2019",15,13,52,-42.5987690877679,0.110107,0.0644531,318906,2019-02-27 15:13:52,"Eating"
"258",0.659912,-0.0959473,0.767822,-0.238281,0.418945,0.821289,"27/2/2019",15,13,52,-40.4584378725652,0.0844727,0.0598145,318907,2019-02-27 15:13:52,"Eating"
"259",0.659912,-0.119873,0.779785,-0.239502,0.418945,0.81958,"27/2/2019",15,13,52,-39.9107523820027,0.121582,0.0817871,318908,2019-02-27 15:13:52,"Eating"
"260",0.671875,-0.143799,0.743896,-0.241699,0.418945,0.816162,"27/2/2019",15,13,52,-41.5655885049523,0.10376,0.0759277,318909,2019-02-27 15:13:52,"Eating"
"261",0.683838,-0.131836,0.719971,-0.240967,0.419189,0.81665,"27/2/2019",15,13,52,-43.0540113650884,0.0795898,0.0593262,318910,2019-02-27 15:13:52,"Eating"
"262",0.683838,-0.10791,0.719971,-0.240234,0.419678,0.817383,"27/2/2019",15,13,52,-43.2078767127959,0.0566406,0.0373535,318911,2019-02-27 15:13:52,"Eating"
"263",0.683838,-0.0839844,0.683838,-0.239502,0.419922,0.817871,"27/2/2019",15,13,52,-44.7855655702441,0.050293,0.0317383,318912,2019-02-27 15:13:52,"Eating"
"264",0.683838,-0.119873,0.647949,-0.238037,0.420898,0.819336,"27/2/2019",15,13,52,-46.0620836445708,0.121338,0.0786133,318913,2019-02-27 15:13:52,"Eating"
"265",0.683838,-0.119873,0.671875,-0.238037,0.42041,0.817383,"27/2/2019",15,13,52,-45.0567439426915,0.0961914,0.0610352,318914,2019-02-27 15:13:52,"Eating"
"266",0.671875,-0.119873,0.695801,-0.237793,0.419922,0.81543,"27/2/2019",15,13,52,-43.5791972456191,0.0610352,0.0483398,318915,2019-02-27 15:13:52,"Eating"
"267",0.671875,-0.0959473,0.683838,-0.237549,0.419189,0.813232,"27/2/2019",15,13,52,-44.2152565734893,0.050293,0.0344238,318916,2019-02-27 15:13:52,"Eating"
"268",0.659912,-0.0598145,0.719971,-0.237061,0.417969,0.809082,"27/2/2019",15,13,52,-42.4096524608825,0.0393066,0.0229492,318917,2019-02-27 15:13:52,"Eating"
"269",0.683838,-0.0717773,0.731934,-0.237549,0.418457,0.809814,"27/2/2019",15,13,52,-42.9175670505725,0.0280762,0.0219727,318918,2019-02-27 15:13:52,"Eating"
"270",0.635986,-0.0358887,0.731934,-0.238037,0.418945,0.810547,"27/2/2019",15,13,52,-40.953700956097,0.102295,0.0610352,318919,2019-02-27 15:13:52,"Eating"
"271",0.659912,-0.0119629,0.743896,-0.23877,0.419678,0.811523,"27/2/2019",15,13,52,-41.5726348702489,0.116699,0.072998,318920,2019-02-27 15:13:52,"Eating"
"272",0.647949,-0.0478516,0.779785,-0.23999,0.420898,0.813232,"27/2/2019",15,13,52,-39.6713881172994,0.131104,0.083252,318921,2019-02-27 15:13:52,"Eating"
"273",0.659912,-0.0717773,0.779785,-0.239258,0.421143,0.812256,"27/2/2019",15,13,52,-40.1212338144699,0.0991211,0.0771484,318922,2019-02-27 15:13:52,"Eating"
"274",0.623779,-0.0839844,0.743896,-0.238525,0.421387,0.811279,"27/2/2019",15,13,52,-39.8022952654518,0.115234,0.0749512,318923,2019-02-27 15:13:52,"Eating"
"275",0.623779,-0.131836,0.707764,-0.237793,0.421875,0.810303,"27/2/2019",15,13,52,-40.9067835248309,0.128662,0.0888672,318924,2019-02-27 15:13:52,"Eating"
"276",0.671875,-0.143799,0.647949,-0.236328,0.422607,0.808105,"27/2/2019",15,13,52,-45.3501034859475,0.14502,0.0939941,318925,2019-02-27 15:13:52,"Eating"
"277",0.671875,-0.179932,0.635986,-0.235596,0.421875,0.808838,"27/2/2019",15,13,52,-45.4696747000044,0.191895,0.129639,318926,2019-02-27 15:13:52,"Eating"
"278",0.671875,-0.155762,0.647949,-0.234863,0.421143,0.809814,"27/2/2019",15,13,53,-45.2340541012326,0.155029,0.103027,318927,2019-02-27 15:13:53,"Eating"
"279",0.671875,-0.155762,0.707764,-0.234131,0.42041,0.810547,"27/2/2019",15,13,53,-42.8337949785345,0.106934,0.088623,318928,2019-02-27 15:13:53,"Eating"
"280",0.671875,-0.0717773,0.755859,-0.233154,0.419678,0.811523,"27/2/2019",15,13,53,-41.5058850937727,0.0710449,0.0556641,318929,2019-02-27 15:13:53,"Eating"
"281",0.671875,-0.0478516,0.743896,-0.232422,0.418945,0.812256,"27/2/2019",15,13,53,-42.0290088304281,0.0761719,0.0490723,318930,2019-02-27 15:13:53,"Eating"
"282",0.671875,-0.0358887,0.719971,-0.231689,0.418213,0.813232,"27/2/2019",15,13,53,-42.9854392985125,0.0649414,0.0402832,318931,2019-02-27 15:13:53,"Eating"
"283",0.683838,-0.0239258,0.719971,-0.23291,0.418945,0.813965,"27/2/2019",15,13,53,-43.5097861586434,0.065918,0.0495605,318932,2019-02-27 15:13:53,"Eating"
"284",0.683838,-0.0839844,0.707764,-0.234131,0.419922,0.814697,"27/2/2019",15,13,53,-43.8148644900801,0.0236816,0.0166016,318933,2019-02-27 15:13:53,"Eating"
"285",0.671875,-0.0839844,0.683838,-0.235352,0.420654,0.81543,"27/2/2019",15,13,53,-44.2800403180711,0.0422363,0.0241699,318934,2019-02-27 15:13:53,"Eating"
"286",0.671875,-0.0598145,0.695801,-0.238037,0.422607,0.817139,"27/2/2019",15,13,53,-43.8923822561682,0.0263672,0.0183105,318935,2019-02-27 15:13:53,"Eating"
"287",0.647949,-0.0358887,0.719971,-0.238037,0.421875,0.818359,"27/2/2019",15,13,53,-41.9507690408936,0.0979004,0.0576172,318936,2019-02-27 15:13:53,"Eating"
"288",0.635986,-0.0717773,0.695801,-0.238281,0.420898,0.81958,"27/2/2019",15,13,53,-42.2774071234879,0.0551758,0.052002,318937,2019-02-27 15:13:53,"Eating"
"289",0.647949,-0.0598145,0.731934,-0.238525,0.419922,0.820801,"27/2/2019",15,13,53,-41.4224351901216,0.0888672,0.0571289,318938,2019-02-27 15:13:53,"Eating"
"290",0.647949,-0.0478516,0.707764,-0.239014,0.417969,0.823242,"27/2/2019",15,13,53,-42.4086429330878,0.0791016,0.0510254,318939,2019-02-27 15:13:53,"Eating"
"291",0.671875,-0.0839844,0.719971,-0.237793,0.416992,0.822998,"27/2/2019",15,13,53,-42.8278148322235,0.0603027,0.0354004,318940,2019-02-27 15:13:53,"Eating"
"292",0.671875,-0.0839844,0.707764,-0.236572,0.416016,0.82251,"27/2/2019",15,13,53,-43.3099084914815,0.0454102,0.0270996,318941,2019-02-27 15:13:53,"Eating"
"293",0.659912,-0.131836,0.671875,-0.235352,0.414795,0.822266,"27/2/2019",15,13,53,-43.9443981772309,0.12085,0.0742188,318942,2019-02-27 15:13:53,"Eating"
"294",0.695801,-0.0839844,0.647949,-0.232666,0.412598,0.821289,"27/2/2019",15,13,53,-46.8013762174105,0.0671387,0.0541992,318943,2019-02-27 15:13:53,"Eating"
"295",0.743896,-0.0478516,0.671875,-0.234131,0.413086,0.82251,"27/2/2019",15,13,53,-47.8400469223189,0.10791,0.0649414,318944,2019-02-27 15:13:53,"Eating"
"296",0.707764,-0.0239258,0.671875,-0.235596,0.413574,0.82373,"27/2/2019",15,13,53,-46.4719892359824,0.0974121,0.0620117,318945,2019-02-27 15:13:53,"Eating"
"297",0.719971,-0.0239258,0.671875,-0.237061,0.414063,0.824951,"27/2/2019",15,13,53,-46.9609896346775,0.111084,0.0671387,318946,2019-02-27 15:13:53,"Eating"
"298",0.707764,-0.0239258,0.683838,-0.23999,0.415283,0.827393,"27/2/2019",15,13,53,-45.9674835498702,0.0874023,0.0595703,318947,2019-02-27 15:13:53,"Eating"
"299",0.695801,-0.0119629,0.707764,-0.240234,0.414551,0.827393,"27/2/2019",15,13,53,-44.5075719016805,0.0812988,0.0683594,318948,2019-02-27 15:13:53,"Eating"
"300",0.683838,-0.0478516,0.695801,-0.240479,0.413818,0.827637,"27/2/2019",15,13,53,-44.4356195350336,0.0405273,0.0327148,318949,2019-02-27 15:13:53,"Eating"
"301",0.683838,-0.0478516,0.695801,-0.240967,0.413086,0.827881,"27/2/2019",15,13,53,-44.4356195350336,0.0385742,0.0322266,318950,2019-02-27 15:13:53,"Eating"
"302",0.707764,-0.0839844,0.683838,-0.241699,0.411621,0.828369,"27/2/2019",15,13,53,-45.7706617117123,0.0344238,0.0219727,318951,2019-02-27 15:13:53,"Eating"
"303",0.731934,-0.0959473,0.671875,-0.240967,0.409912,0.82959,"27/2/2019",15,13,53,-47.1615476198919,0.0820313,0.0510254,318952,2019-02-27 15:13:53,"Eating"
"304",0.707764,-0.143799,0.695801,-0.23999,0.408203,0.830811,"27/2/2019",15,13,53,-44.8892730125654,0.083252,0.0666504,318953,2019-02-27 15:13:53,"Eating"
"305",0.707764,-0.0839844,0.707764,-0.239014,0.40625,0.832031,"27/2/2019",15,13,53,-44.7997190491961,0.0358887,0.0229492,318954,2019-02-27 15:13:53,"Eating"
"306",0.767822,-0.0717773,0.719971,-0.237061,0.402588,0.834473,"27/2/2019",15,13,53,-46.7007425535435,0.111572,0.0830078,318955,2019-02-27 15:13:53,"Eating"
"307",0.815918,-0.0358887,0.743896,-0.236328,0.404297,0.835693,"27/2/2019",15,13,53,-47.6105059293859,0.220215,0.143066,318956,2019-02-27 15:13:53,"Eating"
"308",0.839844,-0.0239258,0.743896,-0.235596,0.406006,0.836914,"27/2/2019",15,13,53,-48.4522210402078,0.256348,0.168457,318957,2019-02-27 15:13:53,"Eating"
"309",0.767822,-0.0239258,0.731934,-0.234863,0.407959,0.838135,"27/2/2019",15,13,53,-46.3555018838157,0.172363,0.104004,318958,2019-02-27 15:13:53,"Eating"
"310",0.791992,-0.0239258,0.695801,-0.233398,0.411621,0.840576,"27/2/2019",15,13,53,-48.6824368368432,0.161377,0.118408,318959,2019-02-27 15:13:53,"Eating"
"311",0.815918,-0.0119629,0.659912,-0.234863,0.412842,0.8396,"27/2/2019",15,13,53,-51.0295707110199,0.232666,0.149414,318960,2019-02-27 15:13:53,"Eating"
"312",0.815918,-0.0119629,0.611816,-0.236572,0.414063,0.838623,"27/2/2019",15,13,53,-53.1303520225379,0.281982,0.167969,318961,2019-02-27 15:13:53,"Eating"
"313",0.743896,-0.0119629,0.647949,-0.238281,0.415283,0.837646,"27/2/2019",15,13,53,-48.9386170720802,0.175049,0.103027,318962,2019-02-27 15:13:53,"Eating"
"314",0.683838,-0.0478516,0.659912,-0.241699,0.417969,0.835693,"27/2/2019",15,13,53,-45.9449923735325,0.0793457,0.0527344,318963,2019-02-27 15:13:53,"Eating"
"315",0.647949,-0.0959473,0.659912,-0.240967,0.419189,0.833252,"27/2/2019",15,13,53,-44.1763705232732,0.0852051,0.0549316,318964,2019-02-27 15:13:53,"Eating"
"316",0.659912,-0.119873,0.659912,-0.23999,0.42041,0.830811,"27/2/2019",15,13,53,-44.5350077369052,0.0979004,0.0566406,318965,2019-02-27 15:13:53,"Eating"
"317",0.623779,-0.0839844,0.647949,-0.239014,0.421631,0.828369,"27/2/2019",15,13,53,-43.6727544856268,0.117188,0.0820313,318966,2019-02-27 15:13:53,"Eating"
"318",0.611816,-0.0598145,0.623779,-0.237061,0.424316,0.823242,"27/2/2019",15,13,53,-44.3142051209188,0.178223,0.110352,318967,2019-02-27 15:13:53,"Eating"
"319",0.647949,-0.0358887,0.671875,-0.237305,0.426025,0.820801,"27/2/2019",15,13,54,-43.9206622647621,0.118408,0.0708008,318968,2019-02-27 15:13:54,"Eating"
"320",0.671875,-0.0839844,0.659912,-0.237793,0.427979,0.818359,"27/2/2019",15,13,54,-45.2845369558831,0.0583496,0.0419922,318969,2019-02-27 15:13:54,"Eating"
"321",0.635986,-0.0959473,0.683838,-0.238037,0.429688,0.815918,"27/2/2019",15,13,54,-42.6451670183166,0.0783691,0.0578613,318970,2019-02-27 15:13:54,"Eating"
"322",0.635986,-0.131836,0.683838,-0.239014,0.433594,0.811035,"27/2/2019",15,13,54,-42.4025913000276,0.115234,0.0737305,318971,2019-02-27 15:13:54,"Eating"
"323",0.683838,-0.143799,0.683838,-0.238525,0.433594,0.81543,"27/2/2019",15,13,54,-44.3802672602416,0.078125,0.0588379,318972,2019-02-27 15:13:54,"Eating"
"324",0.719971,-0.119873,0.671875,-0.238037,0.43335,0.819824,"27/2/2019",15,13,54,-46.5310911375461,0.0844727,0.0490723,318973,2019-02-27 15:13:54,"Eating"
"325",0.719971,-0.131836,0.635986,-0.237549,0.433105,0.824463,"27/2/2019",15,13,54,-47.9454668619534,0.131836,0.0793457,318974,2019-02-27 15:13:54,"Eating"
"326",0.695801,-0.0839844,0.647949,-0.236328,0.432617,0.833496,"27/2/2019",15,13,54,-46.8013762174105,0.0554199,0.0478516,318975,2019-02-27 15:13:54,"Eating"
"327",0.683838,-0.0598145,0.623779,-0.236572,0.434082,0.834473,"27/2/2019",15,13,54,-47.4991719089452,0.107422,0.0769043,318976,2019-02-27 15:13:54,"Eating"
"328",0.827881,-0.0119629,0.623779,-0.236816,0.435791,0.835449,"27/2/2019",15,13,54,-52.9982069156803,0.282959,0.171143,318977,2019-02-27 15:13:54,"Eating"
"329",0.875977,0.0119629,0.671875,-0.237305,0.437256,0.836426,"27/2/2019",15,13,54,-52.5073822191996,0.306152,0.210205,318978,2019-02-27 15:13:54,"Eating"
"330",0.707764,0,0.851807,-0.238037,0.440674,0.838623,"27/2/2019",15,13,54,-39.7230951229175,0.259521,0.18042,318979,2019-02-27 15:13:54,"Eating"
"331",0.695801,-0.0358887,0.839844,-0.238037,0.440918,0.83667,"27/2/2019",15,13,54,-39.6156789716194,0.199707,0.153076,318980,2019-02-27 15:13:54,"Eating"
"332",0.683838,-0.0839844,0.839844,-0.238281,0.441162,0.834717,"27/2/2019",15,13,54,-39.0144996923703,0.157959,0.143799,318981,2019-02-27 15:13:54,"Eating"
"333",0.683838,-0.155762,0.791992,-0.238281,0.441406,0.832764,"27/2/2019",15,13,54,-40.271641679381,0.171143,0.116455,318982,2019-02-27 15:13:54,"Eating"
"334",0.683838,-0.155762,0.731934,-0.238525,0.44165,0.830566,"27/2/2019",15,13,54,-42.4218731724471,0.112061,0.0756836,318983,2019-02-27 15:13:54,"Eating"
"335",0.695801,-0.155762,0.671875,-0.238525,0.441895,0.828613,"27/2/2019",15,13,54,-45.2525472481574,0.0910645,0.0698242,318984,2019-02-27 15:13:54,"Eating"
"336",0.659912,-0.143799,0.659912,-0.23877,0.442139,0.82666,"27/2/2019",15,13,54,-44.3355674292906,0.12207,0.0720215,318985,2019-02-27 15:13:54,"Eating"
"337",0.671875,-0.155762,0.659912,-0.238037,0.442383,0.82373,"27/2/2019",15,13,54,-44.738103857521,0.121826,0.0766602,318986,2019-02-27 15:13:54,"Eating"
"338",0.671875,-0.143799,0.647949,-0.237061,0.442627,0.820557,"27/2/2019",15,13,54,-45.3501034859475,0.12085,0.0737305,318987,2019-02-27 15:13:54,"Eating"
"339",0.647949,-0.131836,0.659912,-0.236328,0.442871,0.817383,"27/2/2019",15,13,54,-43.9155863967417,0.119629,0.0690918,318988,2019-02-27 15:13:54,"Eating"
"340",0.599854,-0.119873,0.683838,-0.234375,0.443604,0.811035,"27/2/2019",15,13,54,-40.8274410377516,0.130127,0.0961914,318989,2019-02-27 15:13:54,"Eating"
"341",0.635986,-0.10791,0.683838,-0.234375,0.443115,0.810791,"27/2/2019",15,13,54,-42.5723517946013,0.0817871,0.0585938,318990,2019-02-27 15:13:54,"Eating"
"342",0.659912,-0.119873,0.671875,-0.234619,0.442627,0.810303,"27/2/2019",15,13,54,-44.0366437569677,0.081543,0.0473633,318991,2019-02-27 15:13:54,"Eating"
"343",0.671875,-0.10791,0.671875,-0.234863,0.441895,0.810059,"27/2/2019",15,13,54,-44.6351997206937,0.057373,0.0336914,318992,2019-02-27 15:13:54,"Eating"
"344",0.659912,-0.0839844,0.659912,-0.235352,0.440674,0.809082,"27/2/2019",15,13,54,-44.7698613212659,0.0754395,0.0476074,318993,2019-02-27 15:13:54,"Eating"
"345",0.659912,-0.143799,0.659912,-0.235107,0.440674,0.809082,"27/2/2019",15,13,54,-44.3355674292906,0.117676,0.0695801,318994,2019-02-27 15:13:54,"Eating"
"346",0.671875,-0.167969,0.683838,-0.234619,0.440674,0.809082,"27/2/2019",15,13,54,-43.6557605345985,0.105957,0.0791016,318995,2019-02-27 15:13:54,"Eating"
"347",0.659912,-0.119873,0.707764,-0.234375,0.440674,0.809082,"27/2/2019",15,13,54,-42.5922570007429,0.0705566,0.0427246,318996,2019-02-27 15:13:54,"Eating"
"348",0.659912,-0.0839844,0.743896,-0.233398,0.440674,0.809082,"27/2/2019",15,13,54,-41.3962566712288,0.0854492,0.0576172,318997,2019-02-27 15:13:54,"Eating"
"349",0.647949,-0.10791,0.719971,-0.233643,0.440674,0.811768,"27/2/2019",15,13,54,-41.6698512641818,0.0817871,0.0500488,318998,2019-02-27 15:13:54,"Eating"
"350",0.671875,-0.143799,0.695801,-0.234131,0.44043,0.814697,"27/2/2019",15,13,54,-43.3993161038135,0.0693359,0.0532227,318999,2019-02-27 15:13:54,"Eating"
"351",0.659912,-0.155762,0.707764,-0.234375,0.44043,0.817383,"27/2/2019",15,13,54,-42.3209583718839,0.104492,0.0695801,319000,2019-02-27 15:13:54,"Eating"
"352",0.671875,-0.179932,0.767822,-0.235352,0.439941,0.823242,"27/2/2019",15,13,54,-40.4296607540224,0.176025,0.115479,319001,2019-02-27 15:13:54,"Eating"
"353",0.671875,-0.167969,0.815918,-0.23584,0.441406,0.821045,"27/2/2019",15,13,54,-38.8877540032185,0.210205,0.143555,319002,2019-02-27 15:13:54,"Eating"
"354",0.659912,-0.10791,0.779785,-0.236328,0.443115,0.818848,"27/2/2019",15,13,54,-39.972622020261,0.125244,0.0900879,319003,2019-02-27 15:13:54,"Eating"
"355",0.683838,-0.119873,0.695801,-0.236816,0.44458,0.81665,"27/2/2019",15,13,54,-44.0843694084573,0.0297852,0.026123,319004,2019-02-27 15:13:54,"Eating"
"356",0.695801,-0.10791,0.695801,-0.238037,0.447998,0.812012,"27/2/2019",15,13,54,-44.6595648022732,0.0224609,0.0166016,319005,2019-02-27 15:13:54,"Eating"
"357",0.695801,-0.143799,0.695801,-0.237549,0.447998,0.8125,"27/2/2019",15,13,54,-44.4009556807708,0.0588379,0.052002,319006,2019-02-27 15:13:54,"Eating"
"358",0.695801,-0.131836,0.683838,-0.237061,0.448242,0.813232,"27/2/2019",15,13,55,-44.9741024765591,0.0581055,0.0422363,319007,2019-02-27 15:13:55,"Eating"
"359",0.683838,-0.119873,0.731934,-0.236572,0.448486,0.813721,"27/2/2019",15,13,55,-42.6762340924421,0.0693359,0.0446777,319008,2019-02-27 15:13:55,"Eating"
"360",0.695801,-0.0839844,0.719971,-0.235352,0.448975,0.815186,"27/2/2019",15,13,55,-43.828486539145,0.0378418,0.0256348,319009,2019-02-27 15:13:55,"Eating"
"361",0.719971,-0.0598145,0.779785,-0.235352,0.448242,0.814941,"27/2/2019",15,13,55,-42.6323557314026,0.146729,0.0944824,319010,2019-02-27 15:13:55,"Eating"
"362",0.659912,-0.10791,0.707764,-0.235596,0.44751,0.814453,"27/2/2019",15,13,55,-42.6679450622407,0.0559082,0.0358887,319011,2019-02-27 15:13:55,"Eating"
"363",0.671875,-0.119873,0.707764,-0.23584,0.446777,0.814209,"27/2/2019",15,13,55,-43.1054825618036,0.057373,0.034668,319012,2019-02-27 15:13:55,"Eating"
"364",0.671875,-0.0717773,0.647949,-0.236328,0.445313,0.813232,"27/2/2019",15,13,55,-45.8639462268545,0.0874023,0.0554199,319013,2019-02-27 15:13:55,"Eating"
"365",0.671875,-0.0839844,0.647949,-0.236328,0.446045,0.813477,"27/2/2019",15,13,55,-45.8000310119347,0.0727539,0.0517578,319014,2019-02-27 15:13:55,"Eating"
"366",0.659912,-0.0839844,0.647949,-0.236328,0.446777,0.813965,"27/2/2019",15,13,55,-45.285447508698,0.0822754,0.0563965,319015,2019-02-27 15:13:55,"Eating"
"367",0.683838,-0.0839844,0.659912,-0.236328,0.44751,0.814209,"27/2/2019",15,13,55,-45.7900405218021,0.0446777,0.0368652,319016,2019-02-27 15:13:55,"Eating"
"368",0.695801,-0.0717773,0.695801,-0.236328,0.448975,0.815186,"27/2/2019",15,13,55,-44.8483773252878,0.0234375,0.0168457,319017,2019-02-27 15:13:55,"Eating"
"369",0.695801,-0.0478516,0.815918,-0.234863,0.448486,0.815918,"27/2/2019",15,13,55,-40.4084214454887,0.166504,0.125244,319018,2019-02-27 15:13:55,"Eating"
"370",0.611816,-0.0839844,0.779785,-0.233398,0.447998,0.81665,"27/2/2019",15,13,55,-37.9572379790696,0.158203,0.110107,319019,2019-02-27 15:13:55,"Eating"
"371",0.659912,-0.10791,0.731934,-0.231934,0.44751,0.817627,"27/2/2019",15,13,55,-41.7316446813447,0.081543,0.0488281,319020,2019-02-27 15:13:55,"Eating"
"372",0.707764,-0.119873,0.695801,-0.229004,0.446289,0.819336,"27/2/2019",15,13,55,-45.0694045204104,0.0568848,0.0380859,319021,2019-02-27 15:13:55,"Eating"
"373",0.707764,-0.119873,0.647949,-0.230713,0.445801,0.821777,"27/2/2019",15,13,55,-47.0457771634252,0.0942383,0.0561523,319022,2019-02-27 15:13:55,"Eating"
"374",0.707764,-0.119873,0.647949,-0.232422,0.445313,0.824219,"27/2/2019",15,13,55,-47.0457771634252,0.0932617,0.0554199,319023,2019-02-27 15:13:55,"Eating"
"375",0.695801,-0.10791,0.659912,-0.234375,0.444824,0.82666,"27/2/2019",15,13,55,-46.1388300417658,0.0581055,0.0358887,319024,2019-02-27 15:13:55,"Eating"
"376",0.695801,-0.0839844,0.731934,-0.238037,0.443604,0.831543,"27/2/2019",15,13,55,-43.3631865326206,0.0561523,0.0437012,319025,2019-02-27 15:13:55,"Eating"
"377",0.683838,-0.10791,0.707764,-0.237793,0.444336,0.831543,"27/2/2019",15,13,55,-43.6861078769018,0.0424805,0.0288086,319026,2019-02-27 15:13:55,"Eating"
"378",0.659912,-0.0839844,0.683838,-0.237549,0.445068,0.831787,"27/2/2019",15,13,55,-43.7656638217936,0.0324707,0.0268555,319027,2019-02-27 15:13:55,"Eating"
"379",0.659912,-0.0717773,0.671875,-0.237061,0.445801,0.832031,"27/2/2019",15,13,55,-44.32282790185,0.0537109,0.0332031,319028,2019-02-27 15:13:55,"Eating"
"380",0.671875,-0.0358887,0.683838,-0.236328,0.447266,0.83252,"27/2/2019",15,13,55,-44.4550358176559,0.0654297,0.0478516,319029,2019-02-27 15:13:55,"Eating"
"381",0.695801,-0.0478516,0.659912,-0.236328,0.447754,0.83252,"27/2/2019",15,13,55,-46.4413856650164,0.0664063,0.0432129,319030,2019-02-27 15:13:55,"Eating"
"382",0.683838,-0.0478516,0.659912,-0.236328,0.448242,0.832764,"27/2/2019",15,13,55,-45.9449923735325,0.0668945,0.0432129,319031,2019-02-27 15:13:55,"Eating"
"383",0.695801,-0.0717773,0.623779,-0.236328,0.44873,0.833008,"27/2/2019",15,13,55,-47.9367129202708,0.0769043,0.0656738,319032,2019-02-27 15:13:55,"Eating"
"384",0.671875,-0.0478516,0.731934,-0.236328,0.449951,0.833496,"27/2/2019",15,13,55,-42.4893518548115,0.0915527,0.0549316,319033,2019-02-27 15:13:55,"Eating"
"385",0.671875,-0.0478516,0.707764,-0.236816,0.449463,0.835693,"27/2/2019",15,13,55,-43.4446482230459,0.0666504,0.0395508,319034,2019-02-27 15:13:55,"Eating"
"386",0.695801,-0.0358887,0.683838,-0.237305,0.44873,0.838135,"27/2/2019",15,13,55,-45.4574129536076,0.0495605,0.0410156,319035,2019-02-27 15:13:55,"Eating"
"387",0.743896,-0.0358887,0.671875,-0.237793,0.447998,0.840332,"27/2/2019",15,13,55,-47.8715517952106,0.107422,0.0654297,319036,2019-02-27 15:13:55,"Eating"
"388",0.767822,-0.10791,0.671875,-0.238281,0.44751,0.842773,"27/2/2019",15,13,55,-48.4508952789372,0.125,0.0817871,319037,2019-02-27 15:13:55,"Eating"
"389",0.731934,-0.0717773,0.671875,-0.23877,0.446777,0.844971,"27/2/2019",15,13,55,-47.2877880491571,0.0576172,0.0407715,319038,2019-02-27 15:13:55,"Eating"
"390",0.743896,-0.0478516,0.671875,-0.239258,0.446045,0.847412,"27/2/2019",15,13,55,-47.8400469223189,0.0939941,0.0583496,319039,2019-02-27 15:13:55,"Eating"
"391",0.803955,-0.0358887,0.695801,-0.239014,0.445557,0.847656,"27/2/2019",15,13,55,-49.0870438445738,0.147705,0.11499,319040,2019-02-27 15:13:55,"Eating"
"392",0.779785,-0.0358887,0.695801,-0.238525,0.445068,0.8479,"27/2/2019",15,13,55,-48.2197008219113,0.121582,0.0908203,319041,2019-02-27 15:13:55,"Eating"
"393",0.779785,-0.0358887,0.719971,-0.238037,0.44458,0.848145,"27/2/2019",15,13,55,-47.2484514606545,0.144775,0.09375,319042,2019-02-27 15:13:55,"Eating"
"394",0.755859,-0.0239258,0.719971,-0.237061,0.443604,0.848877,"27/2/2019",15,13,55,-46.3772050271949,0.133301,0.0788574,319043,2019-02-27 15:13:55,"Eating"
"395",0.755859,-0.0239258,0.731934,-0.236816,0.443115,0.846924,"27/2/2019",15,13,55,-45.9059966522735,0.145752,0.0849609,319044,2019-02-27 15:13:55,"Eating"
"396",0.731934,-0.0598145,0.695801,-0.236572,0.442627,0.844971,"27/2/2019",15,13,55,-46.3443885031164,0.0483398,0.0354004,319045,2019-02-27 15:13:55,"Eating"
"397",0.707764,-0.0717773,0.671875,-0.236084,0.441895,0.842773,"27/2/2019",15,13,55,-46.3277621624884,0.0327148,0.0192871,319046,2019-02-27 15:13:55,"Eating"
"398",0.683838,-0.119873,0.647949,-0.235352,0.440674,0.838623,"27/2/2019",15,13,56,-46.0620836445708,0.11377,0.072998,319047,2019-02-27 15:13:56,"Eating"
"399",0.635986,-0.143799,0.635986,-0.235107,0.442627,0.836182,"27/2/2019",15,13,56,-44.2858942637225,0.198975,0.117432,319048,2019-02-27 15:13:56,"Eating"
"400",0.659912,-0.143799,0.659912,-0.234619,0.44458,0.83374,"27/2/2019",15,13,56,-44.3355674292906,0.150391,0.097168,319049,2019-02-27 15:13:56,"Eating"
"401",0.659912,-0.0839844,0.659912,-0.234375,0.446533,0.831299,"27/2/2019",15,13,56,-44.7698613212659,0.0891113,0.0524902,319050,2019-02-27 15:13:56,"Eating"
"402",0.647949,-0.0478516,0.659912,-0.233398,0.450684,0.826416,"27/2/2019",15,13,56,-44.4008267361277,0.0876465,0.0568848,319051,2019-02-27 15:13:56,"Eating"
"403",0.635986,-0.0239258,0.671875,-0.233398,0.450439,0.825928,"27/2/2019",15,13,56,-43.4100164195599,0.11084,0.0720215,319052,2019-02-27 15:13:56,"Eating"
"404",0.635986,-0.0119629,0.671875,-0.233643,0.450195,0.825195,"27/2/2019",15,13,56,-43.4236080736537,0.121094,0.078125,319053,2019-02-27 15:13:56,"Eating"
"405",0.635986,0.0119629,0.659912,-0.233887,0.449707,0.824707,"27/2/2019",15,13,56,-43.9375722675385,0.156738,0.0964355,319054,2019-02-27 15:13:56,"Eating"
"406",0.659912,0.0119629,0.647949,-0.234375,0.448975,0.823242,"27/2/2019",15,13,56,-45.5191886894336,0.144043,0.0874023,319055,2019-02-27 15:13:56,"Eating"
"407",0.695801,0,0.659912,-0.234131,0.448975,0.82373,"27/2/2019",15,13,56,-46.5164036130913,0.0852051,0.0632324,319056,2019-02-27 15:13:56,"Eating"
"408",0.695801,0.0119629,0.647949,-0.233887,0.44873,0.824463,"27/2/2019",15,13,56,-47.0346167302474,0.109375,0.0791016,319057,2019-02-27 15:13:56,"Eating"
"409",0.683838,0,0.671875,-0.233398,0.448486,0.824951,"27/2/2019",15,13,56,-45.5055728024498,0.0859375,0.0603027,319058,2019-02-27 15:13:56,"Eating"
"410",0.719971,-0.131836,0.635986,-0.232666,0.447998,0.826416,"27/2/2019",15,13,56,-47.9454668619534,0.148682,0.0935059,319059,2019-02-27 15:13:56,"Eating"
"411",0.719971,-0.119873,0.647949,-0.231934,0.447754,0.828369,"27/2/2019",15,13,56,-47.5340924332778,0.124756,0.078125,319060,2019-02-27 15:13:56,"Eating"
"412",0.707764,-0.143799,0.695801,-0.231201,0.44751,0.830322,"27/2/2019",15,13,56,-44.8892730125654,0.108154,0.0900879,319061,2019-02-27 15:13:56,"Eating"
"413",0.683838,-0.143799,0.695801,-0.230469,0.447021,0.83252,"27/2/2019",15,13,56,-43.9043488267326,0.112793,0.0915527,319062,2019-02-27 15:13:56,"Eating"
"414",0.683838,-0.0839844,0.719971,-0.229004,0.446289,0.83667,"27/2/2019",15,13,56,-43.3322722634738,0.0771484,0.046875,319063,2019-02-27 15:13:56,"Eating"
"415",0.707764,0,0.719971,-0.230957,0.447266,0.837158,"27/2/2019",15,13,56,-44.5101384088955,0.0935059,0.060791,319064,2019-02-27 15:13:56,"Eating"
"416",0.707764,0,0.683838,-0.23291,0.448242,0.837646,"27/2/2019",15,13,56,-45.9849969801188,0.0654297,0.0510254,319065,2019-02-27 15:13:56,"Eating"
"417",0.695801,0,0.647949,-0.234863,0.449463,0.838379,"27/2/2019",15,13,56,-47.039486193314,0.0893555,0.0622559,319066,2019-02-27 15:13:56,"Eating"
"418",0.695801,-0.0239258,0.587891,-0.239014,0.45166,0.8396,"27/2/2019",15,13,56,-49.7817392464008,0.125244,0.101318,319067,2019-02-27 15:13:56,"Eating"
"419",0.779785,-0.0239258,0.611816,-0.23877,0.451416,0.840088,"27/2/2019",15,13,56,-51.8611577121087,0.178711,0.112305,319068,2019-02-27 15:13:56,"Eating"
"420",0.719971,-0.10791,0.635986,-0.238281,0.451172,0.84082,"27/2/2019",15,13,56,-48.140465195625,0.133301,0.0825195,319069,2019-02-27 15:13:56,"Eating"
"421",0.719971,-0.0839844,0.683838,-0.238037,0.450684,0.841309,"27/2/2019",15,13,56,-46.2602334887149,0.0637207,0.0427246,319070,2019-02-27 15:13:56,"Eating"
"422",0.719971,-0.0478516,0.779785,-0.237061,0.449951,0.842773,"27/2/2019",15,13,56,-42.6624491886113,0.111328,0.0905762,319071,2019-02-27 15:13:56,"Eating"
"423",0.695801,-0.0239258,0.803955,-0.237061,0.451172,0.841553,"27/2/2019",15,13,56,-40.8627406774573,0.135254,0.113281,319072,2019-02-27 15:13:56,"Eating"
"424",0.719971,-0.0119629,0.707764,-0.237305,0.452637,0.840088,"27/2/2019",15,13,56,-45.4857705517897,0.0678711,0.0410156,319073,2019-02-27 15:13:56,"Eating"
"425",0.779785,-0.0478516,0.683838,-0.237549,0.454102,0.838623,"27/2/2019",15,13,56,-48.6812484192449,0.0915527,0.0803223,319074,2019-02-27 15:13:56,"Eating"
"426",0.743896,-0.0598145,0.671875,-0.238037,0.457031,0.835693,"27/2/2019",15,13,56,-47.7996376767672,0.0771484,0.0495605,319075,2019-02-27 15:13:56,"Eating"
"427",0.707764,-0.0839844,0.695801,-0.238037,0.457031,0.835449,"27/2/2019",15,13,56,-45.2811774414394,0.0517578,0.0400391,319076,2019-02-27 15:13:56,"Eating"
"428",0.695801,-0.0598145,0.755859,-0.238281,0.457275,0.835205,"27/2/2019",15,13,56,-42.5418097170607,0.0837402,0.0666504,319077,2019-02-27 15:13:56,"Eating"
"429",0.575928,-0.0119629,0.779785,-0.238525,0.45752,0.834961,"27/2/2019",15,13,56,-36.4453455035708,0.242188,0.154053,319078,2019-02-27 15:13:56,"Eating"
"430",0.599854,0.0598145,0.695801,-0.239014,0.458008,0.834473,"27/2/2019",15,13,56,-40.6605267549133,0.204346,0.141602,319079,2019-02-27 15:13:56,"Eating"
"431",0.719971,0.0358887,0.623779,-0.237061,0.457764,0.833008,"27/2/2019",15,13,56,-49.0476596877683,0.167969,0.105957,319080,2019-02-27 15:13:56,"Eating"
"432",0.791992,0,0.551758,-0.235107,0.45752,0.831299,"27/2/2019",15,13,56,-55.1361850667321,0.27832,0.174805,319081,2019-02-27 15:13:56,"Eating"
"433",0.791992,-0.0717773,0.551758,-0.233154,0.457031,0.829834,"27/2/2019",15,13,56,-54.9103734636858,0.265869,0.17334,319082,2019-02-27 15:13:56,"Eating"
"434",0.707764,-0.0717773,0.647949,-0.229004,0.456299,0.826416,"27/2/2019",15,13,56,-47.3522199077192,0.0876465,0.0556641,319083,2019-02-27 15:13:56,"Eating"
"435",0.683838,-0.0358887,0.743896,-0.230469,0.456055,0.827393,"27/2/2019",15,13,56,-42.5580772134574,0.064209,0.0483398,319084,2019-02-27 15:13:56,"Eating"
"436",0.695801,0,0.815918,-0.232178,0.455566,0.828369,"27/2/2019",15,13,56,-40.4569808975056,0.166748,0.125,319085,2019-02-27 15:13:56,"Eating"
"437",0.683838,0,0.839844,-0.233643,0.455322,0.829346,"27/2/2019",15,13,56,-39.1539994989208,0.186768,0.145264,319086,2019-02-27 15:13:56,"Eating"
"438",0.683838,-0.0239258,0.695801,-0.237061,0.454346,0.831543,"27/2/2019",15,13,57,-44.4862705749578,0.03125,0.0227051,319087,2019-02-27 15:13:57,"Eating"
"439",0.683838,-0.10791,0.671875,-0.235596,0.453857,0.829834,"27/2/2019",15,13,57,-45.1407883422257,0.097168,0.0710449,319088,2019-02-27 15:13:57,"Eating"
"440",0.671875,-0.155762,0.695801,-0.234131,0.453125,0.828125,"27/2/2019",15,13,57,-43.2981593579095,0.134033,0.111572,319089,2019-02-27 15:13:57,"Eating"
"441",0.647949,-0.179932,0.707764,-0.232666,0.452637,0.826416,"27/2/2019",15,13,57,-41.5814882654542,0.170898,0.138916,319090,2019-02-27 15:13:57,"Eating"
"442",0.635986,-0.0959473,0.683838,-0.230957,0.451904,0.824707,"27/2/2019",15,13,57,-42.6451670183166,0.11792,0.0710449,319091,2019-02-27 15:13:57,"Eating"
"443",0.659912,-0.0358887,0.683838,-0.229492,0.451416,0.822998,"27/2/2019",15,13,57,-43.9405617265845,0.0556641,0.032959,319092,2019-02-27 15:13:57,"Eating"
"444",0.671875,-0.0119629,0.671875,-0.228027,0.450684,0.821289,"27/2/2019",15,13,57,-44.9954596452321,0.0805664,0.0512695,319093,2019-02-27 15:13:57,"Eating"
"445",0.695801,-0.0119629,0.647949,-0.229004,0.451904,0.821533,"27/2/2019",15,13,57,-47.0346167302474,0.111572,0.0712891,319094,2019-02-27 15:13:57,"Eating"
"446",0.707764,-0.0598145,0.695801,-0.22998,0.453125,0.822021,"27/2/2019",15,13,57,-45.3828849610927,0.0480957,0.0314941,319095,2019-02-27 15:13:57,"Eating"
"447",0.695801,-0.0598145,0.695801,-0.231201,0.454346,0.822266,"27/2/2019",15,13,57,-44.8945358823532,0.0371094,0.0222168,319096,2019-02-27 15:13:57,"Eating"
"448",0.683838,-0.0358887,0.779785,-0.233398,0.457031,0.823242,"27/2/2019",15,13,57,-41.2193258640448,0.0910645,0.0722656,319097,2019-02-27 15:13:57,"Eating"
"449",0.683838,-0.0239258,0.779785,-0.234131,0.457031,0.824463,"27/2/2019",15,13,57,-41.2360104664926,0.102051,0.0742188,319098,2019-02-27 15:13:57,"Eating"
"450",0.671875,0,0.755859,-0.234863,0.457275,0.825684,"27/2/2019",15,13,57,-41.6335534514606,0.10083,0.0681152,319099,2019-02-27 15:13:57,"Eating"
"451",0.647949,-0.0358887,0.719971,-0.235596,0.45752,0.826904,"27/2/2019",15,13,57,-41.9507690408936,0.0493164,0.0327148,319100,2019-02-27 15:13:57,"Eating"
"452",0.683838,-0.0358887,0.731934,-0.237061,0.458008,0.82959,"27/2/2019",15,13,57,-43.0200048989161,0.0380859,0.0227051,319101,2019-02-27 15:13:57,"Eating"
"453",0.683838,-0.0239258,0.719971,-0.235107,0.458008,0.82959,"27/2/2019",15,13,57,-43.5097861586434,0.0354004,0.0268555,319102,2019-02-27 15:13:57,"Eating"
"454",0.647949,0,0.695801,-0.23291,0.458008,0.82959,"27/2/2019",15,13,57,-42.960513806686,0.100098,0.0605469,319103,2019-02-27 15:13:57,"Eating"
"455",0.659912,-0.0119629,0.635986,-0.230713,0.458008,0.82959,"27/2/2019",15,13,57,-46.0526608060963,0.136963,0.09375,319104,2019-02-27 15:13:57,"Eating"
"456",0.803955,-0.0358887,0.611816,-0.226318,0.458008,0.82959,"27/2/2019",15,13,57,-52.6811493283442,0.250977,0.169434,319105,2019-02-27 15:13:57,"Eating"
"457",0.767822,-0.0358887,0.683838,-0.228271,0.458008,0.830078,"27/2/2019",15,13,57,-48.27194761885,0.144287,0.101074,319106,2019-02-27 15:13:57,"Eating"
"458",0.719971,-0.0358887,0.707764,-0.230469,0.458008,0.830566,"27/2/2019",15,13,57,-45.4530838902469,0.0759277,0.0500488,319107,2019-02-27 15:13:57,"Eating"
"459",0.683838,-0.0239258,0.791992,-0.232666,0.458008,0.831299,"27/2/2019",15,13,57,-40.7957303457444,0.103516,0.0722656,319108,2019-02-27 15:13:57,"Eating"
"460",0.659912,-0.0119629,0.827881,-0.237061,0.458008,0.83252,"27/2/2019",15,13,57,-38.5557747383468,0.152588,0.107666,319109,2019-02-27 15:13:57,"Eating"
"461",0.683838,0.0598145,0.791992,-0.236572,0.456787,0.831055,"27/2/2019",15,13,57,-40.728073801794,0.185547,0.128174,319110,2019-02-27 15:13:57,"Eating"
"462",0.671875,0.0239258,0.731934,-0.236084,0.455566,0.829346,"27/2/2019",15,13,57,-42.5349739292874,0.0800781,0.0761719,319111,2019-02-27 15:13:57,"Eating"
"463",0.683838,-0.0478516,0.671875,-0.235596,0.454346,0.827881,"27/2/2019",15,13,57,-45.4331090098488,0.0795898,0.0610352,319112,2019-02-27 15:13:57,"Eating"
"464",0.731934,-0.0478516,0.635986,-0.234375,0.45166,0.824463,"27/2/2019",15,13,57,-48.932158328709,0.164795,0.114502,319113,2019-02-27 15:13:57,"Eating"
"465",0.731934,-0.0959473,0.611816,-0.233887,0.45166,0.826172,"27/2/2019",15,13,57,-49.7652409621439,0.227051,0.141846,319114,2019-02-27 15:13:57,"Eating"
"466",0.683838,-0.0478516,0.671875,-0.233398,0.451416,0.827881,"27/2/2019",15,13,57,-45.4331090098488,0.0859375,0.0612793,319115,2019-02-27 15:13:57,"Eating"
"467",0.683838,-0.0239258,0.707764,-0.23291,0.451172,0.829834,"27/2/2019",15,13,57,-43.9986533282647,0.0776367,0.0454102,319116,2019-02-27 15:13:57,"Eating"
"468",0.671875,-0.0119629,0.719971,-0.231689,0.450684,0.833496,"27/2/2019",15,13,57,-43.0169558492353,0.0683594,0.046875,319117,2019-02-27 15:13:57,"Eating"
"469",0.683838,0,0.683838,-0.231689,0.450928,0.82959,"27/2/2019",15,13,57,-45,0.131104,0.078125,319118,2019-02-27 15:13:57,"Eating"
"470",0.779785,-0.0358887,0.671875,-0.231934,0.451416,0.825439,"27/2/2019",15,13,57,-49.2109292412438,0.205078,0.140381,319119,2019-02-27 15:13:57,"Eating"
"471",0.695801,-0.0839844,0.719971,-0.232178,0.45166,0.821533,"27/2/2019",15,13,57,-43.828486539145,0.0844727,0.0524902,319120,2019-02-27 15:13:57,"Eating"
"472",0.683838,-0.0598145,0.791992,-0.232666,0.452637,0.813232,"27/2/2019",15,13,57,-40.728073801794,0.0910645,0.0644531,319121,2019-02-27 15:13:57,"Eating"
"473",0.671875,-0.0717773,0.815918,-0.233154,0.453369,0.811768,"27/2/2019",15,13,57,-39.361720853782,0.114746,0.0822754,319122,2019-02-27 15:13:57,"Eating"
"474",0.647949,-0.0478516,0.923828,-0.233643,0.454102,0.810303,"27/2/2019",15,13,57,-35.0087472479216,0.192383,0.183105,319123,2019-02-27 15:13:57,"Eating"
"475",0.539795,-0.0478516,0.899902,-0.234131,0.454834,0.808838,"27/2/2019",15,13,57,-30.9212423472909,0.272949,0.190186,319124,2019-02-27 15:13:57,"Eating"
"476",0.515869,-0.0959473,0.911865,-0.235352,0.456299,0.805908,"27/2/2019",15,13,57,-29.3631337578887,0.33667,0.216064,319125,2019-02-27 15:13:57,"Eating"
"477",0.551758,-0.0839844,0.86377,-0.235596,0.456299,0.803711,"27/2/2019",15,13,57,-32.4474122607498,0.238281,0.154053,319126,2019-02-27 15:13:57,"Eating"
"478",0.611816,-0.143799,0.767822,-0.23584,0.456543,0.801514,"27/2/2019",15,13,58,-38.0681630973521,0.139893,0.0927734,319127,2019-02-27 15:13:58,"Eating"
"479",0.623779,-0.131836,0.719971,-0.236328,0.456543,0.799316,"27/2/2019",15,13,58,-40.4384567451171,0.116455,0.078125,319128,2019-02-27 15:13:58,"Eating"
"480",0.587891,-0.167969,0.671875,-0.237061,0.457031,0.794678,"27/2/2019",15,13,58,-40.3270999006299,0.238281,0.142822,319129,2019-02-27 15:13:58,"Eating"
"481",0.527832,-0.167969,0.623779,-0.236328,0.456543,0.793213,"27/2/2019",15,13,58,-39.251555000491,0.349365,0.201904,319130,2019-02-27 15:13:58,"Eating"
"482",0.575928,-0.155762,0.647949,-0.235596,0.456055,0.791504,"27/2/2019",15,13,58,-40.8344694763195,0.26709,0.156982,319131,2019-02-27 15:13:58,"Eating"
"483",0.623779,-0.131836,0.659912,-0.234863,0.455566,0.790039,"27/2/2019",15,13,58,-42.8283363250523,0.184326,0.120361,319132,2019-02-27 15:13:58,"Eating"
"484",0.623779,-0.0959473,0.683838,-0.233398,0.454346,0.786621,"27/2/2019",15,13,58,-42.0923081057749,0.123779,0.081543,319133,2019-02-27 15:13:58,"Eating"
"485",0.527832,-0.0478516,0.719971,-0.233398,0.453613,0.789795,"27/2/2019",15,13,58,-36.1860533423734,0.158447,0.116455,319134,2019-02-27 15:13:58,"Eating"
"486",0.599854,-0.0358887,0.719971,-0.233398,0.452881,0.792969,"27/2/2019",15,13,58,-39.764889084454,0.0993652,0.0583496,319135,2019-02-27 15:13:58,"Eating"
"487",0.695801,0.0119629,0.779785,-0.233398,0.452148,0.796387,"27/2/2019",15,13,58,-41.7391363979143,0.154297,0.097168,319136,2019-02-27 15:13:58,"Eating"
"488",0.647949,-0.0119629,0.791992,-0.233398,0.450684,0.802979,"27/2/2019",15,13,58,-39.2842774547486,0.0959473,0.0603027,319137,2019-02-27 15:13:58,"Eating"
"489",0.587891,-0.0358887,0.767822,-0.234131,0.45166,0.803223,"27/2/2019",15,13,58,-37.4096819088068,0.076416,0.0507813,319138,2019-02-27 15:13:58,"Eating"
"490",0.671875,-0.0598145,0.791992,-0.235107,0.452881,0.803711,"27/2/2019",15,13,58,-40.2287658794025,0.076416,0.0527344,319139,2019-02-27 15:13:58,"Eating"
"491",0.671875,-0.0598145,0.815918,-0.236084,0.453857,0.803955,"27/2/2019",15,13,58,-39.3947256388521,0.101318,0.0695801,319140,2019-02-27 15:13:58,"Eating"
"492",0.659912,-0.0478516,0.86377,-0.238037,0.456299,0.804932,"27/2/2019",15,13,58,-37.3371402160694,0.14917,0.107178,319141,2019-02-27 15:13:58,"Eating"
"493",0.683838,-0.0598145,0.851807,-0.237305,0.457031,0.805176,"27/2/2019",15,13,58,-38.6890242701466,0.149658,0.105469,319142,2019-02-27 15:13:58,"Eating"
"494",0.707764,-0.0717773,0.779785,-0.236572,0.457764,0.805664,"27/2/2019",15,13,58,-42.1078768030806,0.106934,0.0849609,319143,2019-02-27 15:13:58,"Eating"
"495",0.695801,-0.0478516,0.731934,-0.23584,0.458496,0.806152,"27/2/2019",15,13,58,-43.4892619982894,0.122559,0.081543,319144,2019-02-27 15:13:58,"Eating"
"496",0.683838,-0.0598145,0.707764,-0.235107,0.459229,0.806641,"27/2/2019",15,13,58,-43.9131279092022,0.126221,0.0856934,319145,2019-02-27 15:13:58,"Eating"
"497",0.671875,-0.131836,0.779785,-0.234375,0.459961,0.807129,"27/2/2019",15,13,58,-40.349880157023,0.126465,0.0844727,319146,2019-02-27 15:13:58,"Eating"
"498",0.659912,-0.10791,0.815918,-0.233643,0.460693,0.807617,"27/2/2019",15,13,58,-38.7231561056446,0.125977,0.0727539,319147,2019-02-27 15:13:58,"Eating"
"499",0.635986,-0.10791,0.839844,-0.234131,0.46167,0.804443,"27/2/2019",15,13,58,-36.909928263651,0.125,0.0788574,319148,2019-02-27 15:13:58,"Eating"
"500",0.599854,-0.0598145,0.851807,-0.234619,0.462891,0.80127,"27/2/2019",15,13,58,-35.0874153734872,0.100342,0.0783691,319149,2019-02-27 15:13:58,"Eating"
"501",0.539795,-0.0478516,0.623779,-0.235107,0.463867,0.798096,"27/2/2019",15,13,58,-40.788528487149,0.248535,0.170654,319150,2019-02-27 15:13:58,"Eating"
"502",0.587891,-0.0478516,0.743896,-0.236328,0.466309,0.791748,"27/2/2019",15,13,58,-38.2613108429109,0.0817871,0.0476074,319151,2019-02-27 15:13:58,"Eating"
"503",0.563965,-0.0717773,0.707764,-0.236328,0.465576,0.789551,"27/2/2019",15,13,58,-38.4059759541035,0.119141,0.0842285,319152,2019-02-27 15:13:58,"Eating"
"504",0.611816,-0.0839844,0.683838,-0.236084,0.464844,0.787354,"27/2/2019",15,13,58,-41.6053276072198,0.109619,0.097168,319153,2019-02-27 15:13:58,"Eating"
"505",0.599854,-0.131836,0.671875,-0.23584,0.464111,0.785156,"27/2/2019",15,13,58,-41.2215743119348,0.174072,0.125,319154,2019-02-27 15:13:58,"Eating"
"506",0.563965,-0.119873,0.731934,-0.235352,0.462646,0.780518,"27/2/2019",15,13,58,-37.2487507550391,0.139404,0.0810547,319155,2019-02-27 15:13:58,"Eating"
"507",0.563965,-0.0717773,0.791992,-0.234131,0.461914,0.78125,"27/2/2019",15,13,58,-35.3434166677973,0.041748,0.036377,319156,2019-02-27 15:13:58,"Eating"
"508",0.527832,-0.0358887,0.839844,-0.23291,0.460938,0.781982,"27/2/2019",15,13,58,-32.1253322461255,0.159668,0.0947266,319157,2019-02-27 15:13:58,"Eating"
"509",0.491943,-0.0119629,0.839844,-0.231689,0.459961,0.782959,"27/2/2019",15,13,58,-30.3573267013231,0.218506,0.13208,319158,2019-02-27 15:13:58,"Eating"
"510",0.515869,-0.0119629,0.827881,-0.229004,0.458008,0.784668,"27/2/2019",15,13,58,-31.9251640658196,0.180664,0.108887,319159,2019-02-27 15:13:58,"Eating"
"511",0.599854,-0.0119629,0.743896,-0.230469,0.45874,0.784912,"27/2/2019",15,13,58,-38.8779771394127,0.12915,0.0859375,319160,2019-02-27 15:13:58,"Eating"
"512",0.599854,-0.0358887,0.731934,-0.231934,0.459473,0.7854,"27/2/2019",15,13,58,-39.3024925135506,0.121826,0.0795898,319161,2019-02-27 15:13:58,"Eating"
"513",0.611816,-0.0478516,0.767822,-0.233398,0.460205,0.785645,"27/2/2019",15,13,58,-38.4944295266866,0.0910645,0.0529785,319162,2019-02-27 15:13:58,"Eating"
"514",0.599854,-0.0839844,0.767822,-0.236328,0.46167,0.786621,"27/2/2019",15,13,58,-37.8332387567073,0.0473633,0.0344238,319163,2019-02-27 15:13:58,"Eating"
"515",0.635986,-0.0959473,0.803955,-0.234863,0.460938,0.787842,"27/2/2019",15,13,58,-38.1495456204182,0.0739746,0.0568848,319164,2019-02-27 15:13:58,"Eating"
"516",0.635986,-0.10791,0.839844,-0.233398,0.459961,0.789063,"27/2/2019",15,13,58,-36.909928263651,0.12207,0.0742188,319165,2019-02-27 15:13:58,"Eating"
"517",0.635986,-0.0839844,0.887939,-0.231934,0.458984,0.790283,"27/2/2019",15,13,59,-35.4914213997057,0.150635,0.10791,319166,2019-02-27 15:13:59,"Eating"
"518",0.611816,-0.0839844,0.875977,-0.229004,0.457031,0.792725,"27/2/2019",15,13,59,-34.8089716794866,0.115967,0.0866699,319167,2019-02-27 15:13:59,"Eating"
"519",0.587891,-0.0478516,0.839844,-0.229492,0.458496,0.791504,"27/2/2019",15,13,59,-34.9484204145379,0.0925293,0.0585938,319168,2019-02-27 15:13:59,"Eating"
"520",0.623779,-0.0239258,0.839844,-0.22998,0.460205,0.790039,"27/2/2019",15,13,59,-36.5913293972946,0.152344,0.0893555,319169,2019-02-27 15:13:59,"Eating"
"521",0.623779,-0.0717773,0.803955,-0.230469,0.461914,0.788574,"27/2/2019",15,13,59,-37.6973527843393,0.0671387,0.0527344,319170,2019-02-27 15:13:59,"Eating"
"522",0.587891,-0.10791,0.827881,-0.231689,0.465332,0.785645,"27/2/2019",15,13,59,-35.1516280618931,0.0627441,0.0368652,319171,2019-02-27 15:13:59,"Eating"
"523",0.563965,-0.143799,0.827881,-0.231689,0.464111,0.784424,"27/2/2019",15,13,59,-33.8681587286547,0.090332,0.0644531,319172,2019-02-27 15:13:59,"Eating"
"524",0.563965,-0.0959473,0.815918,-0.231934,0.462891,0.783203,"27/2/2019",15,13,59,-34.4685436979006,0.0275879,0.0166016,319173,2019-02-27 15:13:59,"Eating"
"525",0.575928,-0.0717773,0.779785,-0.232178,0.46167,0.781982,"27/2/2019",15,13,59,-36.3331314359988,0.0476074,0.0322266,319174,2019-02-27 15:13:59,"Eating"
"526",0.563965,-0.0959473,0.767822,-0.232666,0.458984,0.779541,"27/2/2019",15,13,59,-36.0857377309147,0.059082,0.0446777,319175,2019-02-27 15:13:59,"Eating"
"527",0.539795,-0.10791,0.803955,-0.233398,0.458984,0.778564,"27/2/2019",15,13,59,-33.6420457757443,0.0585938,0.036377,319176,2019-02-27 15:13:59,"Eating"
"528",0.539795,-0.0717773,0.767822,-0.234375,0.459229,0.777588,"27/2/2019",15,13,59,-34.9908362207057,0.0849609,0.0539551,319177,2019-02-27 15:13:59,"Eating"
"529",0.551758,-0.0717773,0.803955,-0.235107,0.459473,0.776611,"27/2/2019",15,13,59,-34.3559481507948,0.0380859,0.0224609,319178,2019-02-27 15:13:59,"Eating"
"530",0.575928,-0.0598145,0.839844,-0.237061,0.459961,0.774414,"27/2/2019",15,13,59,-34.3730370724352,0.0690918,0.0412598,319179,2019-02-27 15:13:59,"Eating"
"531",0.575928,-0.0478516,0.803955,-0.237061,0.459961,0.775879,"27/2/2019",15,13,59,-35.56866872773,0.0722656,0.0478516,319180,2019-02-27 15:13:59,"Eating"
"532",0.575928,-0.0239258,0.791992,-0.237305,0.459961,0.777588,"27/2/2019",15,13,59,-36.011812326574,0.110107,0.0734863,319181,2019-02-27 15:13:59,"Eating"
"533",0.575928,-0.0358887,0.791992,-0.237549,0.459961,0.779053,"27/2/2019",15,13,59,-35.9962939338062,0.0993652,0.0629883,319182,2019-02-27 15:13:59,"Eating"
"534",0.575928,-0.0717773,0.827881,-0.238037,0.459961,0.782471,"27/2/2019",15,13,59,-34.7244838947683,0.0527344,0.0314941,319183,2019-02-27 15:13:59,"Eating"
"535",0.623779,-0.0717773,0.815918,-0.237549,0.459473,0.782715,"27/2/2019",15,13,59,-37.2918353383026,0.0942383,0.0759277,319184,2019-02-27 15:13:59,"Eating"
"536",0.599854,-0.0598145,0.827881,-0.237061,0.458984,0.783203,"27/2/2019",15,13,59,-35.8549512749205,0.0939941,0.0620117,319185,2019-02-27 15:13:59,"Eating"
"537",0.587891,-0.119873,0.839844,-0.236572,0.458252,0.783691,"27/2/2019",15,13,59,-34.7210679366119,0.0864258,0.0524902,319186,2019-02-27 15:13:59,"Eating"
"538",0.575928,-0.119873,0.851807,-0.235352,0.457031,0.784668,"27/2/2019",15,13,59,-33.8034050444184,0.0874023,0.0507813,319187,2019-02-27 15:13:59,"Eating"
"539",0.575928,-0.119873,0.839844,-0.234131,0.457031,0.782471,"27/2/2019",15,13,59,-34.1716250096541,0.076416,0.0456543,319188,2019-02-27 15:13:59,"Eating"
"540",0.563965,-0.155762,0.86377,-0.23291,0.456787,0.780273,"27/2/2019",15,13,59,-32.7226672580777,0.125977,0.0769043,319189,2019-02-27 15:13:59,"Eating"
"541",0.527832,-0.131836,0.86377,-0.231689,0.456787,0.778076,"27/2/2019",15,13,59,-31.1354870800057,0.0878906,0.0556641,319190,2019-02-27 15:13:59,"Eating"
"542",0.527832,-0.0959473,0.86377,-0.229004,0.456299,0.773438,"27/2/2019",15,13,59,-31.2721477617585,0.0498047,0.0400391,319191,2019-02-27 15:13:59,"Eating"
"543",0.527832,-0.0717773,0.851807,-0.229004,0.454102,0.772217,"27/2/2019",15,13,59,-31.6942174589666,0.0593262,0.0366211,319192,2019-02-27 15:13:59,"Eating"
"544",0.515869,-0.0358887,0.815918,-0.229004,0.45166,0.770996,"27/2/2019",15,13,59,-32.278357741006,0.0935059,0.0654297,319193,2019-02-27 15:13:59,"Eating"
"545",0.491943,0.0239258,0.851807,-0.229004,0.449219,0.769775,"27/2/2019",15,13,59,-29.9978838854838,0.185791,0.130371,319194,2019-02-27 15:13:59,"Eating"
"546",0.491943,-0.0839844,0.827881,-0.229004,0.444336,0.767334,"27/2/2019",15,13,59,-30.5909542357768,0.0583496,0.0437012,319195,2019-02-27 15:13:59,"Eating"
"547",0.515869,-0.155762,0.827881,-0.230469,0.44458,0.764404,"27/2/2019",15,13,59,-31.4822760546839,0.0820313,0.0620117,319196,2019-02-27 15:13:59,"Eating"
"548",0.503906,-0.179932,0.815918,-0.231934,0.444824,0.761475,"27/2/2019",15,13,59,-31.0943008518489,0.12915,0.0895996,319197,2019-02-27 15:13:59,"Eating"
"549",0.503906,-0.179932,0.839844,-0.233643,0.445068,0.758545,"27/2/2019",15,13,59,-30.3995488171001,0.114258,0.0864258,319198,2019-02-27 15:13:59,"Eating"
"550",0.503906,-0.155762,0.851807,-0.235107,0.445313,0.755615,"27/2/2019",15,13,59,-30.1961430237701,0.10083,0.0651855,319199,2019-02-27 15:13:59,"Eating"
"551",0.491943,-0.131836,0.839844,-0.236816,0.445557,0.752686,"27/2/2019",15,13,59,-30.0566318838926,0.074707,0.0498047,319200,2019-02-27 15:13:59,"Eating"
"552",0.47998,-0.167969,0.887939,-0.238281,0.445801,0.749756,"27/2/2019",15,13,59,-27.9743592441813,0.166016,0.0966797,319201,2019-02-27 15:13:59,"Eating"
"553",0.47998,-0.131836,0.851807,-0.237305,0.444824,0.750244,"27/2/2019",15,13,59,-29.1114378197058,0.0900879,0.0568848,319202,2019-02-27 15:13:59,"Eating"
"554",0.47998,-0.0839844,0.86377,-0.236084,0.443848,0.750977,"27/2/2019",15,13,59,-28.9457615149543,0.0913086,0.0561523,319203,2019-02-27 15:13:59,"Eating"
"555",0.47998,-0.131836,0.851807,-0.235107,0.442871,0.751465,"27/2/2019",15,13,59,-29.1114378197058,0.0847168,0.0539551,319204,2019-02-27 15:13:59,"Eating"
"556",0.47998,-0.167969,0.851807,-0.232666,0.440674,0.75293,"27/2/2019",15,13,59,-28.93550906554,0.120361,0.0788574,319205,2019-02-27 15:13:59,"Eating"
"557",0.491943,-0.143799,0.86377,-0.233643,0.440186,0.751465,"27/2/2019",15,14,0,-29.327197253408,0.0947266,0.0559082,319206,2019-02-27 15:14:00,"Eating"
"558",0.443848,-0.131836,0.887939,-0.234619,0.439697,0.749756,"27/2/2019",15,14,0,-26.3097704635331,0.153564,0.0957031,319207,2019-02-27 15:14:00,"Eating"
"559",0.455811,-0.131836,0.875977,-0.23584,0.439209,0.748291,"27/2/2019",15,14,0,-27.2281307643485,0.127686,0.0788574,319208,2019-02-27 15:14:00,"Eating"
"560",0.455811,-0.0959473,0.851807,-0.238037,0.437988,0.744873,"27/2/2019",15,14,0,-28.0017207060971,0.088623,0.065918,319209,2019-02-27 15:14:00,"Eating"
"561",0.503906,-0.0717773,0.815918,-0.23877,0.438721,0.745605,"27/2/2019",15,14,0,-31.6005753461412,0.0742188,0.0461426,319210,2019-02-27 15:14:00,"Eating"
"562",0.527832,-0.0959473,0.779785,-0.239746,0.439453,0.746338,"27/2/2019",15,14,0,-33.8943016353708,0.0847168,0.0620117,319211,2019-02-27 15:14:00,"Eating"
"563",0.503906,-0.0959473,0.803955,-0.240723,0.440186,0.74707,"27/2/2019",15,14,0,-31.8967843110518,0.060791,0.0397949,319212,2019-02-27 15:14:00,"Eating"
"564",0.491943,-0.0839844,0.827881,-0.242676,0.44165,0.748779,"27/2/2019",15,14,0,-30.5909542357768,0.0598145,0.0358887,319213,2019-02-27 15:14:00,"Eating"
"565",0.467773,-0.10791,0.851807,-0.242432,0.44043,0.750244,"27/2/2019",15,14,0,-28.5815248588575,0.0576172,0.0471191,319214,2019-02-27 15:14:00,"Eating"
"566",0.47998,-0.10791,0.875977,-0.241943,0.439209,0.751709,"27/2/2019",15,14,0,-28.5384942299237,0.0673828,0.0473633,319215,2019-02-27 15:14:00,"Eating"
"567",0.491943,-0.131836,0.875977,-0.241699,0.437988,0.753174,"27/2/2019",15,14,0,-29.0451351262613,0.0773926,0.0456543,319216,2019-02-27 15:14:00,"Eating"
"568",0.491943,-0.191895,0.86377,-0.240723,0.435303,0.756104,"27/2/2019",15,14,0,-29.0729757977322,0.124512,0.0895996,319217,2019-02-27 15:14:00,"Eating"
"569",0.503906,-0.143799,0.851807,-0.239502,0.436035,0.755859,"27/2/2019",15,14,0,-30.2558398942272,0.0507813,0.0383301,319218,2019-02-27 15:14:00,"Eating"
"570",0.527832,-0.119873,0.839844,-0.238281,0.436768,0.755371,"27/2/2019",15,14,0,-31.8891460992291,0.0361328,0.0227051,319219,2019-02-27 15:14:00,"Eating"
"571",0.503906,-0.0239258,0.851807,-0.237061,0.4375,0.754883,"27/2/2019",15,14,0,-30.5975123743005,0.095459,0.0837402,319220,2019-02-27 15:14:00,"Eating"
"572",0.527832,-0.0239258,0.851807,-0.234375,0.438965,0.753906,"27/2/2019",15,14,0,-31.7747863081114,0.110352,0.0864258,319221,2019-02-27 15:14:00,"Eating"
"573",0.491943,-0.0959473,0.839844,-0.235107,0.438965,0.754395,"27/2/2019",15,14,0,-30.1981069217283,0.034668,0.0212402,319222,2019-02-27 15:14:00,"Eating"
"574",0.491943,-0.143799,0.827881,-0.236084,0.439209,0.755127,"27/2/2019",15,14,0,-30.3469892162016,0.0656738,0.0402832,319223,2019-02-27 15:14:00,"Eating"
"575",0.515869,-0.167969,0.851807,-0.237061,0.439453,0.755615,"27/2/2019",15,14,0,-30.7177362185739,0.0725098,0.0576172,319224,2019-02-27 15:14:00,"Eating"
"576",0.503906,-0.191895,0.851807,-0.239014,0.439941,0.75708,"27/2/2019",15,14,0,-29.9896633665608,0.0856934,0.079834,319225,2019-02-27 15:14:00,"Eating"
"577",0.47998,-0.167969,0.851807,-0.237793,0.439941,0.75708,"27/2/2019",15,14,0,-28.93550906554,0.0834961,0.0598145,319226,2019-02-27 15:14:00,"Eating"
"578",0.491943,-0.155762,0.851807,-0.236572,0.439697,0.756836,"27/2/2019",15,14,0,-29.6012792462081,0.0583496,0.0441895,319227,2019-02-27 15:14:00,"Eating"
"579",0.491943,-0.119873,0.839844,-0.235352,0.439453,0.756592,"27/2/2019",15,14,0,-30.1085106167099,0.0227051,0.0134277,319228,2019-02-27 15:14:00,"Eating"
"580",0.515869,-0.10791,0.851807,-0.232666,0.438965,0.756104,"27/2/2019",15,14,0,-30.9980904829603,0.0256348,0.0166016,319229,2019-02-27 15:14:00,"Eating"
"581",0.47998,-0.0839844,0.86377,-0.233887,0.439209,0.755859,"27/2/2019",15,14,0,-28.9457615149543,0.0661621,0.0388184,319230,2019-02-27 15:14:00,"Eating"
"582",0.491943,-0.0598145,0.875977,-0.235107,0.439453,0.755615,"27/2/2019",15,14,0,-29.2614228639514,0.0883789,0.059082,319231,2019-02-27 15:14:00,"Eating"
"583",0.515869,-0.0717773,0.839844,-0.236328,0.439941,0.755371,"27/2/2019",15,14,0,-31.4671636583747,0.0603027,0.041748,319232,2019-02-27 15:14:00,"Eating"
"584",0.503906,-0.10791,0.827881,-0.239014,0.440674,0.754883,"27/2/2019",15,14,0,-31.1136687255289,0.0258789,0.019043,319233,2019-02-27 15:14:00,"Eating"
"585",0.527832,-0.0717773,0.827881,-0.23877,0.438721,0.755615,"27/2/2019",15,14,0,-32.4231840145537,0.0881348,0.0532227,319234,2019-02-27 15:14:00,"Eating"
"586",0.491943,-0.0839844,0.86377,-0.238281,0.436523,0.756348,"27/2/2019",15,14,0,-29.547033768511,0.0546875,0.0356445,319235,2019-02-27 15:14:00,"Eating"
"587",0.443848,-0.0959473,0.851807,-0.238037,0.434326,0.757324,"27/2/2019",15,14,0,-27.3747572711653,0.0800781,0.059082,319236,2019-02-27 15:14:00,"Eating"
"588",0.467773,-0.131836,0.851807,-0.237061,0.429932,0.759033,"27/2/2019",15,14,0,-28.488341677422,0.0529785,0.0358887,319237,2019-02-27 15:14:00,"Eating"
"589",0.503906,-0.0839844,0.86377,-0.237305,0.429932,0.758301,"27/2/2019",15,14,0,-30.1412368083567,0.0507813,0.0341797,319238,2019-02-27 15:14:00,"Eating"
"590",0.467773,-0.131836,0.851807,-0.237793,0.430176,0.757568,"27/2/2019",15,14,0,-28.488341677422,0.0551758,0.0371094,319239,2019-02-27 15:14:00,"Eating"
"591",0.47998,-0.143799,0.875977,-0.238037,0.43042,0.756592,"27/2/2019",15,14,0,-28.4000808456187,0.0805664,0.0471191,319240,2019-02-27 15:14:00,"Eating"
"592",0.491943,-0.143799,0.815918,-0.239014,0.430908,0.754883,"27/2/2019",15,14,0,-30.7010209766053,0.0717773,0.0454102,319241,2019-02-27 15:14:00,"Eating"
"593",0.491943,-0.143799,0.815918,-0.23877,0.430908,0.755127,"27/2/2019",15,14,0,-30.7010209766053,0.0722656,0.0456543,319242,2019-02-27 15:14:00,"Eating"
"594",0.515869,-0.0839844,0.839844,-0.238281,0.431152,0.755615,"27/2/2019",15,14,0,-31.4330842396062,0.0490723,0.0317383,319243,2019-02-27 15:14:00,"Eating"
"595",0.587891,-0.0358887,0.851807,-0.238037,0.431152,0.756104,"27/2/2019",15,14,0,-34.5884957698673,0.167725,0.11499,319244,2019-02-27 15:14:00,"Eating"
"596",0.551758,-0.131836,0.851807,-0.237061,0.431641,0.75708,"27/2/2019",15,14,0,-32.6244634001635,0.0756836,0.0539551,319245,2019-02-27 15:14:00,"Eating"
"597",0.515869,-0.167969,0.803955,-0.237549,0.432861,0.756104,"27/2/2019",15,14,1,-32.1330033518247,0.113525,0.0725098,319246,2019-02-27 15:14:01,"Eating"
"598",0.515869,-0.179932,0.839844,-0.238037,0.434082,0.755127,"27/2/2019",15,14,1,-30.9896240563017,0.0900879,0.0715332,319247,2019-02-27 15:14:01,"Eating"
"599",0.503906,-0.203857,0.851807,-0.23877,0.435303,0.75415,"27/2/2019",15,14,1,-29.9129509166438,0.102295,0.0947266,319248,2019-02-27 15:14:01,"Eating"
"600",0.503906,-0.131836,0.851807,-0.23999,0.437988,0.751953,"27/2/2019",15,14,1,-30.311085199769,0.0302734,0.0236816,319249,2019-02-27 15:14:01,"Eating"
"601",0.503906,-0.10791,0.839844,-0.239746,0.4375,0.752197,"27/2/2019",15,14,1,-30.7571840313449,0.00756836,0.00561523,319250,2019-02-27 15:14:01,"Eating"
"602",0.503906,-0.0959473,0.86377,-0.239502,0.437012,0.752686,"27/2/2019",15,14,1,-30.1057464510405,0.032959,0.0231934,319251,2019-02-27 15:14:01,"Eating"
"603",0.491943,-0.0959473,0.875977,-0.239258,0.436523,0.753174,"27/2/2019",15,14,1,-29.1726463843022,0.0549316,0.034668,319252,2019-02-27 15:14:01,"Eating"
"604",0.515869,-0.0598145,0.86377,-0.239014,0.436035,0.753418,"27/2/2019",15,14,1,-30.7866027143008,0.0791016,0.0539551,319253,2019-02-27 15:14:01,"Eating"
"605",0.527832,-0.0358887,0.86377,-0.23877,0.435547,0.753906,"27/2/2019",15,14,1,-31.4062591837521,0.113525,0.0783691,319254,2019-02-27 15:14:01,"Eating"
"606",0.467773,-0.0119629,0.86377,-0.238525,0.435059,0.754395,"27/2/2019",15,14,1,-28.4353752060515,0.148193,0.103271,319255,2019-02-27 15:14:01,"Eating"
"607",0.47998,-0.0598145,0.851807,-0.23877,0.435059,0.752686,"27/2/2019",15,14,1,-29.3403543683468,0.0769043,0.0537109,319256,2019-02-27 15:14:01,"Eating"
"608",0.491943,-0.0717773,0.851807,-0.239014,0.435059,0.750977,"27/2/2019",15,14,1,-29.9199612390065,0.0546875,0.0388184,319257,2019-02-27 15:14:01,"Eating"
"609",0.491943,-0.0959473,0.827881,-0.239258,0.435059,0.749268,"27/2/2019",15,14,1,-30.5520167020566,0.0419922,0.0246582,319258,2019-02-27 15:14:01,"Eating"
"610",0.503906,-0.0959473,0.803955,-0.23999,0.435303,0.74585,"27/2/2019",15,14,1,-31.8967843110518,0.0544434,0.0429688,319259,2019-02-27 15:14:01,"Eating"
"611",0.515869,-0.10791,0.827881,-0.240234,0.435059,0.747314,"27/2/2019",15,14,1,-31.7116255944553,0.0288086,0.0202637,319260,2019-02-27 15:14:01,"Eating"
"612",0.503906,-0.143799,0.851807,-0.240479,0.434814,0.749023,"27/2/2019",15,14,1,-30.2558398942272,0.0415039,0.0344238,319261,2019-02-27 15:14:01,"Eating"
"613",0.491943,-0.131836,0.827881,-0.240967,0.434326,0.750488,"27/2/2019",15,14,1,-30.4054927779749,0.0517578,0.0302734,319262,2019-02-27 15:14:01,"Eating"
"614",0.515869,-0.119873,0.827881,-0.241699,0.433594,0.753906,"27/2/2019",15,14,1,-31.6616641466925,0.0358887,0.0222168,319263,2019-02-27 15:14:01,"Eating"
"615",0.551758,-0.143799,0.839844,-0.241211,0.432861,0.755127,"27/2/2019",15,14,1,-32.9252081897835,0.0849609,0.0563965,319264,2019-02-27 15:14:01,"Eating"
"616",0.527832,-0.131836,0.851807,-0.240723,0.432129,0.756348,"27/2/2019",15,14,1,-31.4820698055701,0.0495605,0.0314941,319265,2019-02-27 15:14:01,"Eating"
"617",0.503906,-0.10791,0.851807,-0.240234,0.431396,0.757568,"27/2/2019",15,14,1,-30.407920675336,0.00830078,0.00610352,319266,2019-02-27 15:14:01,"Eating"
"618",0.491943,-0.143799,0.815918,-0.239014,0.429932,0.76001,"27/2/2019",15,14,1,-30.7010209766053,0.0808105,0.0493164,319267,2019-02-27 15:14:01,"Eating"
"619",0.515869,-0.0959473,0.803955,-0.23877,0.429932,0.76001,"27/2/2019",15,14,1,-32.5029500781603,0.0612793,0.0437012,319268,2019-02-27 15:14:01,"Eating"
"620",0.515869,-0.0478516,0.827881,-0.238281,0.429932,0.760254,"27/2/2019",15,14,1,-31.8849779032216,0.0847168,0.0615234,319269,2019-02-27 15:14:01,"Eating"
"621",0.503906,0,0.875977,-0.238037,0.429932,0.760498,"27/2/2019",15,14,1,-29.9096768406128,0.139893,0.110596,319270,2019-02-27 15:14:01,"Eating"
"622",0.491943,-0.0959473,0.86377,-0.237061,0.429932,0.760986,"27/2/2019",15,14,1,-29.5119716404607,0.0444336,0.0263672,319271,2019-02-27 15:14:01,"Eating"
"623",0.491943,-0.143799,0.887939,-0.236572,0.430176,0.759766,"27/2/2019",15,14,1,-28.6743630886112,0.095459,0.0595703,319272,2019-02-27 15:14:01,"Eating"
"624",0.491943,-0.143799,0.86377,-0.236084,0.43042,0.758545,"27/2/2019",15,14,1,-29.327197253408,0.0700684,0.043457,319273,2019-02-27 15:14:01,"Eating"
"625",0.515869,-0.167969,0.851807,-0.235596,0.430908,0.757324,"27/2/2019",15,14,1,-30.7177362185739,0.0786133,0.0615234,319274,2019-02-27 15:14:01,"Eating"
"626",0.515869,-0.167969,0.839844,-0.234375,0.431641,0.754883,"27/2/2019",15,14,1,-31.061211702935,0.074707,0.0612793,319275,2019-02-27 15:14:01,"Eating"
"627",0.503906,-0.10791,0.839844,-0.235352,0.431641,0.754883,"27/2/2019",15,14,1,-30.7571840313449,0.0065918,0.00439453,319276,2019-02-27 15:14:01,"Eating"
"628",0.491943,-0.0839844,0.851807,-0.236572,0.431885,0.754883,"27/2/2019",15,14,1,-29.88778745419,0.0463867,0.0285645,319277,2019-02-27 15:14:01,"Eating"
"629",0.539795,-0.0959473,0.827881,-0.237549,0.432129,0.754883,"27/2/2019",15,14,1,-32.9305169087994,0.0581055,0.0371094,319278,2019-02-27 15:14:01,"Eating"
"630",0.575928,-0.10791,0.839844,-0.23999,0.432617,0.754883,"27/2/2019",15,14,1,-34.2221436068905,0.0725098,0.0678711,319279,2019-02-27 15:14:01,"Eating"
"631",0.527832,-0.131836,0.851807,-0.239258,0.431885,0.755371,"27/2/2019",15,14,1,-31.4820698055701,0.0512695,0.0317383,319280,2019-02-27 15:14:01,"Eating"
"632",0.467773,-0.0839844,0.851807,-0.238281,0.430908,0.756104,"27/2/2019",15,14,1,-28.6567746908592,0.0754395,0.0500488,319281,2019-02-27 15:14:01,"Eating"
"633",0.491943,-0.131836,0.839844,-0.237305,0.429932,0.756592,"27/2/2019",15,14,1,-30.0566318838926,0.0476074,0.0310059,319282,2019-02-27 15:14:01,"Eating"
"634",0.527832,-0.131836,0.827881,-0.235352,0.427979,0.758057,"27/2/2019",15,14,1,-32.1960116243075,0.0554199,0.0324707,319283,2019-02-27 15:14:01,"Eating"
"635",0.515869,-0.10791,0.839844,-0.236084,0.428467,0.758057,"27/2/2019",15,14,1,-31.3512533445891,0.00952148,0.00634766,319284,2019-02-27 15:14:01,"Eating"
"636",0.47998,-0.0839844,0.851807,-0.236816,0.428955,0.758301,"27/2/2019",15,14,1,-29.282200987185,0.0627441,0.0397949,319285,2019-02-27 15:14:01,"Eating"
"637",0.47998,-0.0959473,0.839844,-0.237549,0.429688,0.758545,"27/2/2019",15,14,2,-29.5886646943157,0.0471191,0.0332031,319286,2019-02-27 15:14:02,"Eating"
"638",0.47998,-0.0839844,0.86377,-0.239014,0.430908,0.759033,"27/2/2019",15,14,2,-28.9457615149543,0.0734863,0.0432129,319287,2019-02-27 15:14:02,"Eating"
"639",0.503906,-0.119873,0.851807,-0.23877,0.430176,0.757568,"27/2/2019",15,14,2,-30.3618024317139,0.0292969,0.0178223,319288,2019-02-27 15:14:02,"Eating"
"640",0.491943,-0.131836,0.851807,-0.238281,0.429443,0.755859,"27/2/2019",15,14,2,-29.714845167241,0.0561523,0.0356445,319289,2019-02-27 15:14:02,"Eating"
"641",0.515869,-0.155762,0.851807,-0.238037,0.428711,0.754395,"27/2/2019",15,14,2,-30.783904861955,0.0651855,0.0541992,319290,2019-02-27 15:14:02,"Eating"
"642",0.503906,-0.0717773,0.839844,-0.237061,0.427246,0.750977,"27/2/2019",15,14,2,-30.8718338302536,0.0412598,0.0305176,319291,2019-02-27 15:14:02,"Eating"
"643",0.503906,-0.0358887,0.851807,-0.237793,0.427979,0.752197,"27/2/2019",15,14,2,-30.5851514588256,0.0793457,0.0654297,319292,2019-02-27 15:14:02,"Eating"
"644",0.527832,-0.0119629,0.839844,-0.238525,0.428955,0.753418,"27/2/2019",15,14,2,-32.1462563202468,0.108887,0.0898438,319293,2019-02-27 15:14:02,"Eating"
"645",0.491943,-0.0119629,0.839844,-0.239258,0.429688,0.754639,"27/2/2019",15,14,2,-30.3573267013231,0.112305,0.0913086,319294,2019-02-27 15:14:02,"Eating"
"646",0.491943,-0.131836,0.851807,-0.240723,0.431641,0.75708,"27/2/2019",15,14,2,-29.714845167241,0.0559082,0.0356445,319295,2019-02-27 15:14:02,"Eating"
"647",0.503906,-0.167969,0.791992,-0.239258,0.430908,0.757813,"27/2/2019",15,14,2,-31.8984432251897,0.123291,0.0825195,319296,2019-02-27 15:14:02,"Eating"
"648",0.527832,-0.179932,0.827881,-0.237793,0.430176,0.758545,"27/2/2019",15,14,2,-31.9239302364435,0.109863,0.0783691,319297,2019-02-27 15:14:02,"Eating"
"649",0.527832,-0.167969,0.839844,-0.236328,0.429443,0.759277,"27/2/2019",15,14,2,-31.6448348789893,0.0866699,0.0656738,319298,2019-02-27 15:14:02,"Eating"
"650",0.539795,-0.143799,0.851807,-0.233398,0.427979,0.760986,"27/2/2019",15,14,2,-31.9997922397393,0.0791016,0.0510254,319299,2019-02-27 15:14:02,"Eating"
"651",0.527832,-0.131836,0.86377,-0.234131,0.428711,0.760742,"27/2/2019",15,14,2,-31.1354870800057,0.0686035,0.0402832,319300,2019-02-27 15:14:02,"Eating"
"652",0.539795,-0.131836,0.875977,-0.235107,0.429443,0.760254,"27/2/2019",15,14,2,-31.3563729449642,0.0944824,0.0549316,319301,2019-02-27 15:14:02,"Eating"
"653",0.503906,-0.167969,0.875977,-0.236084,0.430176,0.76001,"27/2/2019",15,14,2,-29.4646139898616,0.112305,0.0759277,319302,2019-02-27 15:14:02,"Eating"
"654",0.515869,-0.0598145,0.851807,-0.238037,0.431641,0.759033,"27/2/2019",15,14,2,-31.1374165713819,0.057373,0.0446777,319303,2019-02-27 15:14:02,"Eating"
"655",0.491943,-0.0717773,0.827881,-0.237549,0.430908,0.759033,"27/2/2019",15,14,2,-30.6254745659282,0.0646973,0.0400391,319304,2019-02-27 15:14:02,"Eating"
"656",0.515869,-0.0717773,0.839844,-0.236816,0.429932,0.759033,"27/2/2019",15,14,2,-31.4671636583747,0.0322266,0.0305176,319305,2019-02-27 15:14:02,"Eating"
"657",0.515869,-0.0717773,0.851807,-0.236084,0.428955,0.759033,"27/2/2019",15,14,2,-31.1100787136272,0.0424805,0.0324707,319306,2019-02-27 15:14:02,"Eating"
"658",0.503906,-0.0717773,0.815918,-0.235596,0.428223,0.759033,"27/2/2019",15,14,2,-31.6005753461412,0.0681152,0.0410156,319307,2019-02-27 15:14:02,"Eating"
"659",0.503906,-0.119873,0.791992,-0.234863,0.427246,0.759033,"27/2/2019",15,14,2,-32.1734393720172,0.083252,0.0544434,319308,2019-02-27 15:14:02,"Eating"
"660",0.491943,-0.0959473,0.815918,-0.234131,0.42627,0.759033,"27/2/2019",15,14,2,-30.9134217523585,0.0598145,0.0393066,319309,2019-02-27 15:14:02,"Eating"
"661",0.47998,-0.10791,0.827881,-0.234375,0.426758,0.759033,"27/2/2019",15,14,2,-29.8948593454746,0.0627441,0.045166,319310,2019-02-27 15:14:02,"Eating"
"662",0.47998,-0.10791,0.815918,-0.234619,0.427246,0.758789,"27/2/2019",15,14,2,-30.2503745823884,0.072998,0.0500488,319311,2019-02-27 15:14:02,"Eating"
"663",0.491943,-0.143799,0.839844,-0.234863,0.427734,0.758545,"27/2/2019",15,14,2,-30.000130692461,0.0734863,0.052002,319312,2019-02-27 15:14:02,"Eating"
"664",0.47998,-0.10791,0.839844,-0.235352,0.428955,0.758057,"27/2/2019",15,14,2,-29.5467728082007,0.0517578,0.0454102,319313,2019-02-27 15:14:02,"Eating"
"665",0.503906,-0.0598145,0.851807,-0.236084,0.428955,0.758057,"27/2/2019",15,14,2,-30.5456978037791,0.0786133,0.0498047,319314,2019-02-27 15:14:02,"Eating"
"666",0.587891,-0.0598145,0.851807,-0.237061,0.429199,0.758301,"27/2/2019",15,14,2,-34.5463976653316,0.117432,0.0749512,319315,2019-02-27 15:14:02,"Eating"
"667",0.539795,-0.0358887,0.851807,-0.238037,0.429443,0.758545,"27/2/2019",15,14,2,-32.3397023005389,0.092041,0.0671387,319316,2019-02-27 15:14:02,"Eating"
"668",0.47998,-0.119873,0.851807,-0.23999,0.429932,0.759033,"27/2/2019",15,14,2,-29.1609171268133,0.083252,0.0541992,319317,2019-02-27 15:14:02,"Eating"
"669",0.515869,-0.119873,0.851807,-0.23999,0.430176,0.759033,"27/2/2019",15,14,2,-30.9514506517801,0.0471191,0.0275879,319318,2019-02-27 15:14:02,"Eating"
"670",0.575928,-0.155762,0.86377,-0.240234,0.43042,0.759033,"27/2/2019",15,14,2,-33.2719771094376,0.130859,0.078125,319319,2019-02-27 15:14:02,"Eating"
"671",0.623779,-0.179932,0.851807,-0.240234,0.430908,0.759033,"27/2/2019",15,14,2,-35.6212279996838,0.194336,0.126953,319320,2019-02-27 15:14:02,"Eating"
"672",0.575928,-0.191895,0.851807,-0.240723,0.431641,0.759033,"27/2/2019",15,14,2,-33.4086273853921,0.162354,0.108154,319321,2019-02-27 15:14:02,"Eating"
"673",0.47998,-0.131836,0.827881,-0.240723,0.430908,0.759521,"27/2/2019",15,14,2,-29.7935128571034,0.0878906,0.0610352,319322,2019-02-27 15:14:02,"Eating"
"674",0.431885,-0.0959473,0.851807,-0.240967,0.430176,0.760254,"27/2/2019",15,14,2,-26.7406079745694,0.125244,0.102051,319323,2019-02-27 15:14:02,"Eating"
"675",0.539795,-0.0598145,0.851807,-0.241211,0.429443,0.760742,"27/2/2019",15,14,2,-32.2989916713391,0.0656738,0.0424805,319324,2019-02-27 15:14:02,"Eating"
"676",0.587891,-0.0959473,0.851807,-0.241699,0.427979,0.762207,"27/2/2019",15,14,3,-34.4435822746468,0.0817871,0.0593262,319325,2019-02-27 15:14:03,"Eating"
"677",0.575928,-0.0598145,0.851807,-0.241211,0.427979,0.761475,"27/2/2019",15,14,3,-33.9982532609541,0.100342,0.0585938,319326,2019-02-27 15:14:03,"Eating"
"678",0.491943,-0.0598145,0.803955,-0.240723,0.428223,0.760742,"27/2/2019",15,14,3,-31.3922550513239,0.101318,0.060791,319327,2019-02-27 15:14:03,"Eating"
"679",0.539795,-0.0358887,0.827881,-0.240234,0.428467,0.759766,"27/2/2019",15,14,3,-33.0805529344408,0.0622559,0.0588379,319328,2019-02-27 15:14:03,"Eating"
"680",0.503906,-0.0478516,0.875977,-0.239014,0.428955,0.758057,"27/2/2019",15,14,3,-29.872796286442,0.134277,0.078125,319329,2019-02-27 15:14:03,"Eating"
"681",0.491943,-0.0239258,0.839844,-0.23877,0.428467,0.759277,"27/2/2019",15,14,3,-30.3497265830759,0.136475,0.0891113,319330,2019-02-27 15:14:03,"Eating"
"682",0.467773,-0.0478516,0.86377,-0.238281,0.427979,0.760742,"27/2/2019",15,14,3,-28.4009317695348,0.162109,0.0976563,319331,2019-02-27 15:14:03,"Eating"
"683",0.503906,-0.0717773,0.851807,-0.238037,0.42749,0.762207,"27/2/2019",15,14,3,-30.518662790836,0.0925293,0.0551758,319332,2019-02-27 15:14:03,"Eating"
"684",0.527832,-0.131836,0.851807,-0.237061,0.42627,0.765137,"27/2/2019",15,14,3,-31.4820698055701,0.081543,0.0480957,319333,2019-02-27 15:14:03,"Eating"
"685",0.503906,-0.167969,0.875977,-0.236816,0.425293,0.764893,"27/2/2019",15,14,3,-29.4646139898616,0.166748,0.0979004,319334,2019-02-27 15:14:03,"Eating"
"686",0.47998,-0.179932,0.947998,-0.236572,0.424316,0.764404,"27/2/2019",15,14,3,-26.447059695562,0.275879,0.164551,319335,2019-02-27 15:14:03,"Eating"
"687",0.395996,-0.10791,0.923828,-0.236084,0.423096,0.76416,"27/2/2019",15,14,3,-23.0619889917418,0.266846,0.186035,319336,2019-02-27 15:14:03,"Eating"
"688",0.395996,-0.0478516,0.791992,-0.235352,0.420898,0.763184,"27/2/2019",15,14,3,-26.5233186227231,0.236328,0.167236,319337,2019-02-27 15:14:03,"Eating"
"689",0.443848,-0.0119629,0.719971,-0.236084,0.421143,0.765381,"27/2/2019",15,14,3,-31.6494853416335,0.295898,0.171631,319338,2019-02-27 15:14:03,"Eating"
"690",0.575928,-0.0239258,0.671875,-0.237061,0.421387,0.767578,"27/2/2019",15,14,3,-40.585083695458,0.243408,0.167725,319339,2019-02-27 15:14:03,"Eating"
"691",0.635986,-0.0598145,0.623779,-0.238037,0.421875,0.769775,"27/2/2019",15,14,3,-45.4240856586251,0.314941,0.216553,319340,2019-02-27 15:14:03,"Eating"
"692",0.683838,-0.143799,0.731934,-0.23999,0.422607,0.774414,"27/2/2019",15,14,3,-42.5134746790473,0.263672,0.162598,319341,2019-02-27 15:14:03,"Eating"
"693",0.647949,-0.119873,0.815918,-0.23877,0.421631,0.774658,"27/2/2019",15,14,3,-38.1567414881455,0.120117,0.0952148,319342,2019-02-27 15:14:03,"Eating"
"694",0.563965,-0.119873,0.86377,-0.237549,0.420654,0.775146,"27/2/2019",15,14,3,-32.8912769115718,0.0776367,0.0517578,319343,2019-02-27 15:14:03,"Eating"
"695",0.515869,-0.131836,0.875977,-0.236084,0.419434,0.775391,"27/2/2019",15,14,3,-30.2143237570808,0.135498,0.079834,319344,2019-02-27 15:14:03,"Eating"
"696",0.587891,-0.10791,0.899902,-0.233398,0.417236,0.776367,"27/2/2019",15,14,3,-32.9689173383886,0.125977,0.0898438,319345,2019-02-27 15:14:03,"Eating"
"697",0.659912,-0.10791,0.887939,-0.234863,0.417236,0.776367,"27/2/2019",15,14,3,-36.4186837529874,0.186035,0.125488,319346,2019-02-27 15:14:03,"Eating"
"698",0.659912,-0.0839844,0.887939,-0.236572,0.417236,0.776611,"27/2/2019",15,14,3,-36.4974798432832,0.187988,0.125,319347,2019-02-27 15:14:03,"Eating"
"699",0.623779,-0.0598145,0.875977,-0.238281,0.417236,0.776855,"27/2/2019",15,14,3,-35.3915419917696,0.164063,0.0964355,319348,2019-02-27 15:14:03,"Eating"
"700",0.611816,-0.119873,0.851807,-0.241699,0.417236,0.777344,"27/2/2019",15,14,3,-35.4222727010708,0.107178,0.0651855,319349,2019-02-27 15:14:03,"Eating"
"701",0.563965,-0.10791,0.803955,-0.241699,0.416504,0.776855,"27/2/2019",15,14,3,-34.8090877515022,0.0166016,0.0107422,319350,2019-02-27 15:14:03,"Eating"
"702",0.563965,-0.0717773,0.791992,-0.241455,0.415771,0.776367,"27/2/2019",15,14,3,-35.3434166677973,0.0539551,0.0366211,319351,2019-02-27 15:14:03,"Eating"
"703",0.563965,-0.0839844,0.779785,-0.241211,0.415039,0.775635,"27/2/2019",15,14,3,-35.71888862009,0.0563965,0.0380859,319352,2019-02-27 15:14:03,"Eating"
"704",0.587891,-0.143799,0.767822,-0.240723,0.413574,0.774414,"27/2/2019",15,14,3,-36.9642477113387,0.105713,0.0646973,319353,2019-02-27 15:14:03,"Eating"
"705",0.587891,-0.119873,0.767822,-0.240723,0.41333,0.774902,"27/2/2019",15,14,3,-37.1073857732571,0.0812988,0.052002,319354,2019-02-27 15:14:03,"Eating"
"706",0.515869,-0.0598145,0.827881,-0.240723,0.412842,0.775391,"27/2/2019",15,14,3,-31.8609396492022,0.111816,0.0710449,319355,2019-02-27 15:14:03,"Eating"
"707",0.575928,-0.10791,0.839844,-0.240723,0.412598,0.776123,"27/2/2019",15,14,3,-34.2221436068905,0.0373535,0.0280762,319356,2019-02-27 15:14:03,"Eating"
"708",0.563965,-0.143799,0.875977,-0.240723,0.411621,0.777344,"27/2/2019",15,14,3,-32.4281754731223,0.11499,0.0766602,319357,2019-02-27 15:14:03,"Eating"
"709",0.467773,-0.0717773,0.767822,-0.240967,0.410645,0.77832,"27/2/2019",15,14,3,-31.2399953524477,0.178955,0.118408,319358,2019-02-27 15:14:03,"Eating"
"710",0.503906,-0.0119629,0.731934,-0.241455,0.409424,0.779297,"27/2/2019",15,14,3,-34.5422144583992,0.237793,0.137695,319359,2019-02-27 15:14:03,"Eating"
"711",0.551758,0.0478516,0.695801,-0.241699,0.408203,0.780273,"27/2/2019",15,14,3,-38.3480097074145,0.284912,0.187988,319360,2019-02-27 15:14:03,"Eating"
"712",0.611816,0.0358887,0.659912,-0.242188,0.407227,0.781494,"27/2/2019",15,14,3,-42.7919606098973,0.32373,0.205811,319361,2019-02-27 15:14:03,"Eating"
"713",0.647949,0,0.635986,-0.242432,0.406006,0.782471,"27/2/2019",15,14,3,-45.5338351055097,0.347412,0.213867,319362,2019-02-27 15:14:03,"Eating"
"714",0.671875,-0.0839844,0.719971,-0.24292,0.404785,0.783447,"27/2/2019",15,14,3,-42.8278148322235,0.203125,0.134521,319363,2019-02-27 15:14:03,"Eating"
"715",0.635986,-0.119873,0.791992,-0.24292,0.403809,0.782471,"27/2/2019",15,14,3,-38.4487922728896,0.101807,0.067627,319364,2019-02-27 15:14:03,"Eating"
"716",0.599854,-0.119873,0.827881,-0.24292,0.402588,0.781494,"27/2/2019",15,14,4,-35.6438305107759,0.0654297,0.0380859,319365,2019-02-27 15:14:04,"Eating"
"717",0.575928,-0.143799,0.839844,-0.24292,0.401367,0.780518,"27/2/2019",15,14,4,-34.0555332462344,0.0793457,0.0556641,319366,2019-02-27 15:14:04,"Eating"
"718",0.599854,-0.10791,0.875977,-0.242676,0.398926,0.778564,"27/2/2019",15,14,4,-34.2018036564902,0.103516,0.0722656,319367,2019-02-27 15:14:04,"Eating"
"719",0.647949,-0.167969,0.86377,-0.241943,0.396729,0.780029,"27/2/2019",15,14,4,-36.3659779649117,0.19751,0.11499,319368,2019-02-27 15:14:04,"Eating"
"720",0.659912,-0.167969,0.851807,-0.240967,0.394531,0.781738,"27/2/2019",15,14,4,-37.2378597679926,0.195557,0.117432,319369,2019-02-27 15:14:04,"Eating"
"721",0.659912,-0.10791,0.839844,-0.23999,0.392334,0.783203,"27/2/2019",15,14,4,-37.9310178388277,0.122314,0.0925293,319370,2019-02-27 15:14:04,"Eating"
"722",0.635986,-0.131836,0.827881,-0.238037,0.387939,0.786621,"27/2/2019",15,14,4,-37.1857852508411,0.108643,0.0712891,319371,2019-02-27 15:14:04,"Eating"
"723",0.623779,-0.143799,0.767822,-0.240479,0.387939,0.785156,"27/2/2019",15,14,4,-38.6079755456503,0.131836,0.0766602,319372,2019-02-27 15:14:04,"Eating"
"724",0.623779,-0.0598145,0.803955,-0.24292,0.388184,0.783447,"27/2/2019",15,14,4,-37.7308908929057,0.10376,0.0693359,319373,2019-02-27 15:14:04,"Eating"
"725",0.587891,-0.0598145,0.779785,-0.245605,0.388428,0.781982,"27/2/2019",15,14,4,-36.9324039877221,0.09375,0.0576172,319374,2019-02-27 15:14:04,"Eating"
"726",0.635986,-0.0959473,0.779785,-0.250732,0.388916,0.778564,"27/2/2019",15,14,4,-38.989713819608,0.105713,0.0737305,319375,2019-02-27 15:14:04,"Eating"
"727",0.611816,-0.0717773,0.779785,-0.250977,0.389893,0.776855,"27/2/2019",15,14,4,-38.0002582438795,0.104492,0.0610352,319376,2019-02-27 15:14:04,"Eating"
"728",0.563965,-0.131836,0.803955,-0.251465,0.391113,0.774902,"27/2/2019",15,14,4,-34.6926290574854,0.0390625,0.029541,319377,2019-02-27 15:14:04,"Eating"
"729",0.611816,-0.167969,0.827881,-0.251709,0.39209,0.773193,"27/2/2019",15,14,4,-35.914232381677,0.124023,0.0786133,319378,2019-02-27 15:14:04,"Eating"
"730",0.599854,-0.167969,0.827881,-0.252686,0.394531,0.769287,"27/2/2019",15,14,4,-35.3784652500697,0.109375,0.0712891,319379,2019-02-27 15:14:04,"Eating"
"731",0.563965,-0.167969,0.827881,-0.251953,0.393555,0.768066,"27/2/2019",15,14,4,-33.7275755173444,0.0778809,0.0622559,319380,2019-02-27 15:14:04,"Eating"
"732",0.527832,-0.0959473,0.839844,-0.251221,0.392334,0.766602,"27/2/2019",15,14,4,-31.9817453422064,0.0720215,0.0449219,319381,2019-02-27 15:14:04,"Eating"
"733",0.503906,-0.0598145,0.743896,-0.250488,0.391357,0.765137,"27/2/2019",15,14,4,-34.0275562576281,0.182861,0.107178,319382,2019-02-27 15:14:04,"Eating"
"734",0.575928,-0.0717773,0.731934,-0.249023,0.388916,0.762207,"27/2/2019",15,14,4,-38.0645447263891,0.143066,0.0976563,319383,2019-02-27 15:14:04,"Eating"
"735",0.611816,-0.0959473,0.707764,-0.249268,0.389648,0.76416,"27/2/2019",15,14,4,-40.5833514406555,0.180908,0.125488,319384,2019-02-27 15:14:04,"Eating"
"736",0.623779,-0.143799,0.671875,-0.249512,0.390381,0.766113,"27/2/2019",15,14,4,-42.2348907824714,0.247314,0.165527,319385,2019-02-27 15:14:04,"Eating"
"737",0.683838,-0.167969,0.719971,-0.25,0.391113,0.768066,"27/2/2019",15,14,4,-42.7680281279574,0.284912,0.171875,319386,2019-02-27 15:14:04,"Eating"
"738",0.647949,-0.179932,0.791992,-0.250732,0.392578,0.772217,"27/2/2019",15,14,4,-38.5827130081752,0.191162,0.120117,319387,2019-02-27 15:14:04,"Eating"
"739",0.575928,-0.179932,0.815918,-0.248779,0.391846,0.771973,"27/2/2019",15,14,4,-34.5786072176254,0.0964355,0.072998,319388,2019-02-27 15:14:04,"Eating"
"740",0.599854,-0.179932,0.827881,-0.246582,0.390869,0.771484,"27/2/2019",15,14,4,-35.2998580155614,0.125977,0.0842285,319389,2019-02-27 15:14:04,"Eating"
"741",0.635986,-0.179932,0.851807,-0.244385,0.389893,0.77124,"27/2/2019",15,14,4,-36.148559406461,0.186523,0.114746,319390,2019-02-27 15:14:04,"Eating"
"742",0.611816,-0.131836,0.851807,-0.23999,0.387939,0.770264,"27/2/2019",15,14,4,-35.3673391541553,0.113525,0.0739746,319391,2019-02-27 15:14:04,"Eating"
"743",0.563965,-0.0839844,0.86377,-0.242432,0.38916,0.770264,"27/2/2019",15,14,4,-33.0176876320801,0.0925293,0.0561523,319392,2019-02-27 15:14:04,"Eating"
"744",0.551758,-0.0717773,0.827881,-0.244873,0.390381,0.770508,"27/2/2019",15,14,4,-33.5833382378711,0.057373,0.0458984,319393,2019-02-27 15:14:04,"Eating"
"745",0.587891,-0.0598145,0.839844,-0.247559,0.391846,0.770752,"27/2/2019",15,14,4,-34.923962984588,0.117676,0.0742188,319394,2019-02-27 15:14:04,"Eating"
"746",0.623779,-0.0598145,0.839844,-0.252686,0.394531,0.77124,"27/2/2019",15,14,4,-36.5330968326552,0.153564,0.101074,319395,2019-02-27 15:14:04,"Eating"
"747",0.599854,-0.0478516,0.839844,-0.250732,0.393311,0.77002,"27/2/2019",15,14,4,-35.492212625264,0.141846,0.092041,319396,2019-02-27 15:14:04,"Eating"
"748",0.539795,-0.0478516,0.827881,-0.248779,0.39209,0.768555,"27/2/2019",15,14,4,-33.0614555617588,0.0705566,0.0693359,319397,2019-02-27 15:14:04,"Eating"
"749",0.539795,-0.0717773,0.815918,-0.246826,0.390625,0.76709,"27/2/2019",15,14,4,-33.3862708493763,0.0576172,0.0463867,319398,2019-02-27 15:14:04,"Eating"
"750",0.587891,-0.0839844,0.839844,-0.242676,0.387939,0.76416,"27/2/2019",15,14,4,-34.85822487065,0.0959473,0.0615234,319399,2019-02-27 15:14:04,"Eating"
"751",0.575928,-0.143799,0.839844,-0.243408,0.390381,0.762207,"27/2/2019",15,14,4,-34.0555332462344,0.0739746,0.046875,319400,2019-02-27 15:14:04,"Eating"
"752",0.551758,-0.155762,0.815918,-0.244141,0.393066,0.760254,"27/2/2019",15,14,4,-33.5939526284293,0.0656738,0.0407715,319401,2019-02-27 15:14:04,"Eating"
"753",0.503906,-0.143799,0.815918,-0.244873,0.395508,0.758057,"27/2/2019",15,14,4,-31.3088087001732,0.0661621,0.0390625,319402,2019-02-27 15:14:04,"Eating"
"754",0.515869,-0.0839844,0.827881,-0.246338,0.400879,0.753906,"27/2/2019",15,14,4,-31.7963465164577,0.064209,0.0446777,319403,2019-02-27 15:14:04,"Eating"
"755",0.515869,-0.0358887,0.803955,-0.245605,0.400635,0.751953,"27/2/2019",15,14,4,-32.6609127075879,0.136963,0.0979004,319404,2019-02-27 15:14:04,"Eating"
"756",0.515869,-0.0478516,0.827881,-0.244629,0.400146,0.75,"27/2/2019",15,14,5,-31.8849779032216,0.101318,0.0812988,319405,2019-02-27 15:14:05,"Eating"
"757",0.491943,-0.155762,0.839844,-0.243652,0.399902,0.747803,"27/2/2019",15,14,5,-29.9390876335132,0.059082,0.0410156,319406,2019-02-27 15:14:05,"Eating"
"758",0.491943,-0.179932,0.839844,-0.241699,0.398926,0.743652,"27/2/2019",15,14,5,-29.8022559882672,0.081543,0.0585938,319407,2019-02-27 15:14:05,"Eating"
"759",0.515869,-0.191895,0.851807,-0.241699,0.398926,0.741455,"27/2/2019",15,14,5,-30.5750460151191,0.0761719,0.064209,319408,2019-02-27 15:14:05,"Eating"
"760",0.515869,-0.155762,0.851807,-0.241699,0.398926,0.739258,"27/2/2019",15,14,5,-30.783904861955,0.0385742,0.0297852,319409,2019-02-27 15:14:05,"Eating"
"761",0.503906,-0.131836,0.851807,-0.241699,0.398926,0.737061,"27/2/2019",15,14,5,-30.311085199769,0.0231934,0.013916,319410,2019-02-27 15:14:05,"Eating"
"762",0.47998,-0.131836,0.86377,-0.241699,0.398926,0.732422,"27/2/2019",15,14,5,-28.780821595696,0.0554199,0.0373535,319411,2019-02-27 15:14:05,"Eating"
"763",0.455811,-0.0839844,0.86377,-0.242676,0.398682,0.732178,"27/2/2019",15,14,5,-27.7094746043349,0.118408,0.0722656,319412,2019-02-27 15:14:05,"Eating"
"764",0.407959,-0.10791,0.887939,-0.243896,0.398193,0.731689,"27/2/2019",15,14,5,-24.5172146256773,0.163818,0.109619,319413,2019-02-27 15:14:05,"Eating"
"765",0.431885,-0.0959473,0.887939,-0.245117,0.397949,0.731201,"27/2/2019",15,14,5,-25.8072702129954,0.150391,0.0910645,319414,2019-02-27 15:14:05,"Eating"
"766",0.431885,-0.10791,0.875977,-0.246338,0.397461,0.730957,"27/2/2019",15,14,5,-26.0740488867326,0.124756,0.079834,319415,2019-02-27 15:14:05,"Eating"
"767",0.431885,-0.0959473,0.851807,-0.247559,0.397217,0.730469,"27/2/2019",15,14,5,-26.7406079745694,0.109619,0.0776367,319416,2019-02-27 15:14:05,"Eating"
"768",0.431885,-0.0839844,0.851807,-0.248779,0.396729,0.72998,"27/2/2019",15,14,5,-26.7743948899924,0.118652,0.0825195,319417,2019-02-27 15:14:05,"Eating"
"769",0.407959,-0.155762,0.839844,-0.247803,0.397217,0.729004,"27/2/2019",15,14,5,-25.5296470008436,0.116943,0.0893555,319418,2019-02-27 15:14:05,"Eating"
